trialNr	 pairType	 fsStimID	 objStimID	 targetPos	 resp	 RT	 isCorrect	subject	run
1	2	7	15	3	3	1830	1	30004	1
2	2	29	1	2	2	2284	1	30004	1
3	1	5	15	2	2	1332	1	30004	1
4	1	30	7	2	2	1127	1	30004	1
5	1	21	5	2	2	695	1	30004	1
6	1	2	4	1	1	1085	1	30004	1
7	1	32	12	2	2	700	1	30004	1
8	2	28	10	1	1	1556	1	30004	1
9	2	10	7	2	3	1377	0	30004	1
10	1	22	2	2	2	900	1	30004	1
11	2	27	9	1	1	1162	1	30004	1
12	1	31	17	2	2	833	1	30004	1
13	2	13	6	2	3	2001	0	30004	1
14	2	36	4	2	2	1554	1	30004	1
15	1	8	3	2	2	694	1	30004	1
16	1	11	8	3	3	1420	1	30004	1
17	1	14	16	1	1	956	1	30004	1
18	2	20	12	3	1	1514	0	30004	1
19	1	35	18	1	1	1166	1	30004	1
20	2	4	14	2	2	1499	1	30004	1
21	2	34	17	3	3	1602	1	30004	1
22	2	19	2	1	1	1574	1	30004	1
23	2	17	16	2	2	1706	1	30004	1
24	2	25	11	1	1	987	1	30004	1
25	1	6	9	3	3	1127	1	30004	1
26	1	23	13	3	3	1414	1	30004	1
27	2	9	5	2	2	933	1	30004	1
28	2	26	8	2	2	1368	1	30004	1
29	1	33	6	1	1	1116	1	30004	1
30	1	15	1	2	2	1357	1	30004	1
31	2	1	3	1	1	861	1	30004	1
32	2	18	18	3	3	1038	1	30004	1
33	2	3	13	3	3	1107	1	30004	1
34	1	16	11	3	3	1859	1	30004	1
35	1	24	14	2	2	704	1	30004	1
36	1	12	10	2	2	1052	1	30004	1
1	2	16	4	2	2	1894	1	30008	1
2	2	20	16	2	2	3421	1	30008	1
3	1	15	18	2	2	1249	1	30008	1
4	2	3	10	2	2	2656	1	30008	1
5	2	26	11	2	2	922	1	30008	1
6	1	14	9	2	2	1200	1	30008	1
7	2	34	6	1	1	2361	1	30008	1
8	2	35	2	1	1	1638	1	30008	1
9	1	23	15	1	1	3211	1	30008	1
10	2	18	1	1	1	2791	1	30008	1
11	1	29	10	3	3	1897	1	30008	1
12	2	31	14	2	2	1145	1	30008	1
13	1	4	6	3	3	1512	1	30008	1
14	1	21	7	1	1	1779	1	30008	1
15	1	22	13	1	1	1027	1	30008	1
16	1	11	12	3	3	1633	1	30008	1
17	1	30	17	1	1	1316	1	30008	1
18	1	1	11	1	1	1446	1	30008	1
19	1	33	16	3	3	961	1	30008	1
20	2	32	8	3	3	1581	1	30008	1
21	1	25	14	1	1	1107	1	30008	1
22	2	27	15	3	3	2360	1	30008	1
23	1	24	3	1	1	1087	1	30008	1
24	1	6	2	2	2	1084	1	30008	1
25	2	9	3	2	2	1066	1	30008	1
26	1	28	1	1	2	1664	0	30008	1
27	2	7	12	1	1	1076	1	30008	1
28	2	8	5	2	2	1548	1	30008	1
29	2	36	7	3	3	1891	1	30008	1
30	1	17	4	1	1	1418	1	30008	1
31	1	10	5	3	3	1215	1	30008	1
32	2	5	17	3	3	1683	1	30008	1
33	2	12	9	3	3	1460	1	30008	1
34	2	13	13	3	2	2159	0	30008	1
35	1	2	8	3	3	2283	1	30008	1
36	2	19	18	1	1	1554	1	30008	1
1	1	24	6	3	3	3326	1	30009	1
2	2	1	7	3	3	2173	1	30009	1
3	2	18	5	1	1	1683	1	30009	1
4	2	10	6	1	1	954	1	30009	1
5	2	15	18	3	3	2160	1	30009	1
6	2	16	3	2	2	2161	1	30009	1
7	1	2	16	3	3	1153	1	30009	1
8	1	36	3	3	3	1389	1	30009	1
9	2	33	4	3	2	1785	0	30009	1
10	1	34	13	3	3	1002	1	30009	1
11	2	3	17	3	3	2090	1	30009	1
12	1	29	12	1	1	963	1	30009	1
13	2	23	11	1	1	1711	1	30009	1
14	1	9	14	2	2	1266	1	30009	1
15	2	28	16	1	1	1631	1	30009	1
16	2	6	1	1	1	1624	1	30009	1
17	1	13	17	1	1	1079	1	30009	1
18	1	22	10	3	3	1049	1	30009	1
19	1	35	15	2	2	1227	1	30009	1
20	2	12	12	3	3	1706	1	30009	1
21	2	5	10	3	3	1261	1	30009	1
22	1	27	5	1	1	768	1	30009	1
23	1	26	8	1	1	1499	1	30009	1
24	1	30	18	2	2	1170	1	30009	1
25	2	25	9	2	2	1958	1	30009	1
26	1	8	11	1	1	1841	1	30009	1
27	1	19	9	3	3	1987	1	30009	1
28	1	31	4	3	3	1833	1	30009	1
29	2	7	8	1	1	1656	1	30009	1
30	1	4	7	1	1	979	1	30009	1
31	2	20	2	2	2	2104	1	30009	1
32	1	14	1	2	2	1052	1	30009	1
33	2	32	14	3	3	2350	1	30009	1
34	2	17	13	3	3	1243	1	30009	1
35	1	11	2	3	3	1498	1	30009	1
36	2	21	15	2	2	1142	1	30009	1
1	1	29	8	3	3	2048	1	30012	1
2	1	34	16	3	3	1157	1	30012	1
3	2	6	4	2	2	1919	1	30012	1
4	2	14	1	2	2	3448	1	30012	1
5	2	7	16	2	2	1403	1	30012	1
6	1	26	17	2	2	1670	1	30012	1
7	2	17	6	3	3	998	1	30012	1
8	2	19	14	3	3	3779	1	30012	1
9	1	24	3	3	3	1456	1	30012	1
10	1	8	5	2	2	1695	1	30012	1
11	2	18	3	2	2	1725	1	30012	1
12	2	16	18	1	1	2309	1	30012	1
13	2	21	5	1	1	1909	1	30012	1
14	1	11	7	2	2	1594	1	30012	1
15	1	33	2	2	2	1439	1	30012	1
16	1	22	6	1	1	2714	1	30012	1
17	1	25	18	2	2	1049	1	30012	1
18	1	36	4	2	2	2995	1	30012	1
19	1	20	14	3	3	1390	1	30012	1
20	1	12	12	3	3	1236	1	30012	1
21	1	15	9	1	1	4819	1	30012	1
22	2	1	9	3	1	4184	0	30012	1
23	1	4	1	3	3	2809	1	30012	1
24	1	31	11	3	3	1233	1	30012	1
25	2	10	8	1	1	1649	1	30012	1
26	2	9	15	1	1	3006	1	30012	1
27	2	3	10	3	3	3280	1	30012	1
28	2	30	7	3	3	2667	1	30012	1
29	1	13	10	2	2	953	1	30012	1
30	2	27	13	2	3	4511	0	30012	1
31	1	35	13	2	3	3529	0	30012	1
32	2	28	11	2	2	1215	1	30012	1
33	2	2	17	1	1	1395	1	30012	1
34	2	32	2	3	3	1187	1	30012	1
35	2	23	12	2	2	1449	1	30012	1
36	1	5	15	1	1	1452	1	30012	1
1	1	35	2	3	2	2789	0	30015	1
2	2	4	14	1	1	2120	1	30015	1
3	2	13	2	1	1	2038	1	30015	1
4	1	21	9	1	1	2266	1	30015	1
5	1	7	8	3	3	5829	1	30015	1
6	2	36	9	1	1	1866	1	30015	1
7	1	6	3	3	3	1300	1	30015	1
8	2	8	12	3	3	1316	1	30015	1
9	2	34	13	2	2	1305	1	30015	1
10	2	20	5	3	3	1169	1	30015	1
11	1	5	1	1	1	2512	1	30015	1
12	1	2	18	2	2	1575	1	30015	1
13	2	31	18	2	2	1051	1	30015	1
14	2	12	17	3	3	1901	1	30015	1
15	1	27	7	3	3	2852	1	30015	1
16	1	23	6	3	3	3288	1	30015	1
17	2	10	15	2	2	1393	1	30015	1
18	2	33	6	3	3	1124	1	30015	1
19	1	17	5	3	3	1065	1	30015	1
20	2	18	7	2	2	1301	1	30015	1
21	1	29	13	1	1	1112	1	30015	1
22	1	11	12	1	1	1031	1	30015	1
23	1	30	16	3	3	882	1	30015	1
24	1	15	11	3	3	5020	1	30015	1
25	2	32	3	3	3	1176	1	30015	1
26	1	28	15	1	1	1700	1	30015	1
27	2	16	16	2	2	4429	1	30015	1
28	1	3	17	3	3	1420	1	30015	1
29	2	22	10	3	3	1785	1	30015	1
30	2	26	8	2	2	3215	1	30015	1
31	1	14	14	2	2	1702	1	30015	1
32	2	19	4	3	3	866	1	30015	1
33	2	25	1	1	1	4019	1	30015	1
34	1	24	4	1	1	2440	1	30015	1
35	1	1	10	3	3	945	1	30015	1
36	2	9	11	1	1	2511	1	30015	1
1	1	5	16	3	3	3395	1	30019	1
2	2	35	16	3	3	2888	1	30019	1
3	2	15	8	2	2	1615	1	30019	1
4	2	31	5	2	2	1953	1	30019	1
5	1	12	8	3	3	1794	1	30019	1
6	1	1	2	3	3	1235	1	30019	1
7	2	13	4	2	2	2192	1	30019	1
8	1	16	1	1	1	1918	1	30019	1
9	2	27	3	2	2	1601	1	30019	1
10	1	8	12	3	3	1520	1	30019	1
11	2	28	18	1	1	1274	1	30019	1
12	2	4	13	2	2	1387	1	30019	1
13	1	34	5	1	1	1321	1	30019	1
14	2	24	11	3	3	2292	1	30019	1
15	2	10	10	2	2	3417	1	30019	1
16	2	23	15	3	3	2146	1	30019	1
17	1	29	3	3	3	2926	1	30019	1
18	1	3	17	3	3	1573	1	30019	1
19	1	18	13	3	3	1599	1	30019	1
20	1	17	15	3	3	1499	1	30019	1
21	1	25	18	3	3	1271	1	30019	1
22	1	33	11	1	1	1319	1	30019	1
23	2	32	1	1	1	3113	1	30019	1
24	1	30	4	2	2	1740	1	30019	1
25	1	2	14	1	1	1218	1	30019	1
26	2	26	9	3	3	2251	1	30019	1
27	2	14	14	1	1	2888	1	30019	1
28	2	6	17	1	1	1477	1	30019	1
29	2	20	7	3	3	3542	1	30019	1
30	2	22	6	3	3	1763	1	30019	1
31	2	9	2	2	2	1784	1	30019	1
32	2	19	12	2	2	3427	1	30019	1
33	1	11	7	3	3	3306	1	30019	1
34	1	21	6	1	1	1575	1	30019	1
35	1	7	10	3	3	1533	1	30019	1
36	1	36	9	1	1	1667	1	30019	1
1	1	1	13	2	3	6030	0	30020	1
2	2	24	15	3	3	4243	1	30020	1
3	2	35	16	1	1	4707	1	30020	1
4	2	25	9	2	2	3223	1	30020	1
5	1	11	16	3	3	2433	1	30020	1
6	1	29	1	2	2	1631	1	30020	1
7	1	27	9	2	2	1464	1	30020	1
8	1	7	7	2	2	4447	1	30020	1
9	1	21	15	1	1	1113	1	30020	1
10	1	14	18	3	3	1517	1	30020	1
11	2	23	5	2	2	1304	1	30020	1
12	1	13	10	3	3	2294	1	30020	1
13	1	18	14	3	3	3971	1	30020	1
14	2	17	18	1	2	4244	0	30020	1
15	2	22	1	2	2	4228	1	30020	1
16	2	31	7	1	1	1955	1	30020	1
17	2	34	12	1	1	983	1	30020	1
18	2	10	14	2	2	3020	1	30020	1
19	1	9	17	1	1	1556	1	30020	1
20	1	15	6	3	1	6072	0	30020	1
21	1	12	8	2	2	2827	1	30020	1
22	2	26	4	3	1	1839	0	30020	1
23	2	4	17	1	1	1217	1	30020	1
24	1	33	11	3	3	1663	1	30020	1
25	2	6	10	2	2	1191	1	30020	1
26	2	2	11	1	1	4507	1	30020	1
27	1	30	3	3	3	1390	1	30020	1
28	1	19	12	2	3	5435	0	30020	1
29	1	20	5	2	2	1536	1	30020	1
30	1	16	2	2	2	1717	1	30020	1
31	2	36	2	3	3	2559	1	30020	1
32	1	3	4	1	1	914	1	30020	1
33	2	8	3	2	2	1387	1	30020	1
34	2	28	13	2	2	3405	1	30020	1
35	2	32	8	2	2	3276	1	30020	1
36	2	5	6	3	3	2194	1	30020	1
1	2	19	4	3	3	2277	1	30023	1
2	2	20	13	1	1	1139	1	30023	1
3	2	24	12	1	1	1162	1	30023	1
4	1	14	1	1	1	1213	1	30023	1
5	1	32	17	1	1	1068	1	30023	1
6	2	23	7	2	2	1074	1	30023	1
7	1	18	3	1	1	2008	1	30023	1
8	1	3	15	2	2	1500	1	30023	1
9	1	2	18	3	3	901	1	30023	1
10	1	26	8	1	1	2282	1	30023	1
11	2	6	16	1	1	1168	1	30023	1
12	2	27	18	3	3	1202	1	30023	1
13	2	9	1	3	3	1398	1	30023	1
14	1	31	16	3	3	1098	1	30023	1
15	2	15	6	1	1	1106	1	30023	1
16	2	21	17	1	1	2328	1	30023	1
17	2	12	9	2	2	939	1	30023	1
18	2	28	15	2	2	1525	1	30023	1
19	2	17	3	2	2	1081	1	30023	1
20	1	8	14	3	3	1637	1	30023	1
21	1	16	12	2	2	847	1	30023	1
22	1	35	13	1	1	1071	1	30023	1
23	1	1	2	2	2	1175	1	30023	1
24	2	36	10	3	3	1168	1	30023	1
25	2	25	8	3	3	806	1	30023	1
26	2	11	14	1	1	2264	1	30023	1
27	1	29	9	3	3	1164	1	30023	1
28	1	22	11	3	3	792	1	30023	1
29	2	7	5	1	1	1045	1	30023	1
30	1	4	6	1	1	1240	1	30023	1
31	1	5	7	3	3	867	1	30023	1
32	1	34	5	1	1	997	1	30023	1
33	1	30	10	3	3	908	1	30023	1
34	2	33	2	1	1	1433	1	30023	1
35	1	13	4	1	1	1685	1	30023	1
36	2	10	11	1	1	1135	1	30023	1
1	1	21	13	2	2	1871	1	30040	1
2	2	14	14	2	2	1717	1	30040	1
3	1	22	15	1	1	1201	1	30040	1
4	1	7	16	3	3	1066	1	30040	1
5	1	3	7	1	1	1169	1	30040	1
6	1	26	10	3	3	945	1	30040	1
7	1	5	8	1	3	2395	0	30040	1
8	1	18	2	3	3	879	1	30040	1
9	1	16	17	1	1	4471	1	30040	1
10	1	30	14	3	3	1101	1	30040	1
11	2	20	18	3	3	1399	1	30040	1
12	2	2	5	1	1	1262	1	30040	1
13	2	27	7	2	2	1442	1	30040	1
14	2	24	17	1	3	1980	0	30040	1
15	2	32	11	2	2	1184	1	30040	1
16	1	36	3	1	1	1348	1	30040	1
17	1	29	18	3	3	1101	1	30040	1
18	2	31	13	2	2	1735	1	30040	1
19	1	35	9	3	3	1207	1	30040	1
20	1	9	11	2	2	1082	1	30040	1
21	2	19	15	3	3	2441	1	30040	1
22	1	1	12	2	2	766	1	30040	1
23	2	4	1	1	3	933	0	30040	1
24	2	28	3	2	2	1073	1	30040	1
25	1	34	6	1	1	1563	1	30040	1
26	2	15	6	2	2	928	1	30040	1
27	2	23	9	2	2	1496	1	30040	1
28	2	25	2	2	2	1356	1	30040	1
29	2	11	12	1	1	1773	1	30040	1
30	2	33	16	2	2	1636	1	30040	1
31	1	10	5	3	3	950	1	30040	1
32	1	13	1	1	1	1567	1	30040	1
33	2	6	4	3	3	1540	1	30040	1
34	2	12	8	1	1	1108	1	30040	1
35	1	8	4	1	1	1802	1	30040	1
36	2	17	10	2	2	934	1	30040	1
1	2	15	7	1	1	2433	1	30057	1
2	2	33	10	2	2	1225	1	30057	1
3	1	14	9	2	2	1912	1	30057	1
4	1	25	4	3	3	1848	1	30057	1
5	2	30	15	1	1	1455	1	30057	1
6	2	3	6	2	2	1078	1	30057	1
7	2	31	16	1	1	1755	1	30057	1
8	1	19	3	1	1	1413	1	30057	1
9	1	17	5	3	3	1213	1	30057	1
10	2	24	18	3	3	2260	1	30057	1
11	2	36	12	3	3	1292	1	30057	1
12	1	4	6	3	3	1227	1	30057	1
13	2	6	1	1	1	2044	1	30057	1
14	2	28	8	3	3	955	1	30057	1
15	2	7	13	3	3	1251	1	30057	1
16	1	2	15	1	1	968	1	30057	1
17	2	32	2	2	2	1445	1	30057	1
18	2	29	4	1	1	904	1	30057	1
19	1	16	17	3	3	2048	1	30057	1
20	1	1	14	2	2	870	1	30057	1
21	1	13	12	1	1	1159	1	30057	1
22	1	35	8	1	1	1973	1	30057	1
23	2	11	17	3	3	1396	1	30057	1
24	2	27	11	3	3	1046	1	30057	1
25	1	20	10	1	1	1076	1	30057	1
26	1	9	11	1	1	1390	1	30057	1
27	2	26	3	2	2	1225	1	30057	1
28	2	18	14	3	3	1435	1	30057	1
29	1	22	18	3	3	1120	1	30057	1
30	1	21	7	3	3	1140	1	30057	1
31	1	10	16	1	1	1079	1	30057	1
32	2	12	5	2	2	1247	1	30057	1
33	2	23	9	2	2	1017	1	30057	1
34	1	5	2	3	3	1078	1	30057	1
35	1	8	1	3	3	1051	1	30057	1
36	1	34	13	3	3	1817	1	30057	1
1	1	14	14	3	3	1271	1	30064	1
2	2	16	1	1	1	3369	1	30064	1
3	1	20	8	3	3	2838	1	30064	1
4	1	13	13	2	2	2719	1	30064	1
5	1	26	9	2	1	2722	0	30064	1
6	1	25	16	3	3	1031	1	30064	1
7	2	24	6	1	1	1301	1	30064	1
8	2	4	16	3	3	2164	1	30064	1
9	2	22	10	3	3	1888	1	30064	1
10	2	35	14	1	1	1245	1	30064	1
11	1	36	3	1	1	2406	1	30064	1
12	1	28	10	1	1	1808	1	30064	1
13	1	19	4	2	2	2384	1	30064	1
14	1	7	11	1	1	2967	1	30064	1
15	1	18	18	1	1	2374	1	30064	1
16	1	21	2	3	3	1077	1	30064	1
17	2	33	9	2	2	2002	1	30064	1
18	2	10	8	2	2	1622	1	30064	1
19	1	34	12	2	2	1326	1	30064	1
20	1	3	6	3	3	2943	1	30064	1
21	1	27	1	1	1	2619	1	30064	1
22	2	1	12	1	1	1116	1	30064	1
23	1	17	15	2	2	2049	1	30064	1
24	2	8	15	3	3	1830	1	30064	1
25	2	29	11	3	1	2273	0	30064	1
26	2	23	2	1	1	4066	1	30064	1
27	1	2	17	3	3	1880	1	30064	1
28	2	6	13	2	2	2228	1	30064	1
29	2	15	4	2	1	1966	0	30064	1
30	2	31	5	2	2	3064	1	30064	1
31	2	11	3	3	1	2602	0	30064	1
32	2	9	18	3	1	3500	0	30064	1
33	2	30	7	3	3	2806	1	30064	1
34	1	5	7	3	3	2215	1	30064	1
35	2	32	17	1	1	1890	1	30064	1
36	1	12	5	3	3	1507	1	30064	1
1	2	8	11	3	3	4620	1	30066	1
2	1	5	4	1	2	4433	0	30066	1
3	2	15	7	2	2	3778	1	30066	1
4	2	17	14	1	3	4074	0	30066	1
5	1	27	14	1	1	2569	1	30066	1
6	2	24	8	1	2	3473	0	30066	1
7	2	22	1	2	2	2941	1	30066	1
8	1	10	7	3	2	1828	0	30066	1
9	2	25	18	2	2	2944	1	30066	1
10	2	21	6	3	1	1899	0	30066	1
11	2	20	16	2	2	3855	1	30066	1
12	1	30	17	1	1	1997	1	30066	1
13	1	31	6	1	1	1310	1	30066	1
14	2	1	9	3	3	2387	1	30066	1
15	1	36	5	3	3	2525	1	30066	1
16	1	7	10	3	2	2066	0	30066	1
17	2	16	4	2	2	1520	1	30066	1
18	2	14	12	2	3	2600	0	30066	1
19	1	12	2	2	2	1458	1	30066	1
20	1	11	12	3	3	1588	1	30066	1
21	1	32	18	1	1	1334	1	30066	1
22	1	13	3	1	1	1789	1	30066	1
23	1	19	11	1	1	2104	1	30066	1
24	2	28	17	3	3	2541	1	30066	1
25	1	26	13	2	2	936	1	30066	1
26	2	2	5	1	1	1227	1	30066	1
27	2	18	3	3	2	2047	0	30066	1
28	1	35	9	1	1	1463	1	30066	1
29	1	23	15	2	2	2012	1	30066	1
30	1	29	1	1	3	2243	0	30066	1
31	2	9	10	3	1	2147	0	30066	1
32	2	3	2	3	3	1605	1	30066	1
33	1	33	8	2	2	2192	1	30066	1
34	2	4	15	3	3	2216	1	30066	1
35	1	6	16	1	1	1557	1	30066	1
36	2	34	13	2	2	2784	1	30066	1
1	2	7	8	2	2	1438	1	30069	1
2	1	10	12	2	2	1108	1	30069	1
3	1	24	17	2	2	845	1	30069	1
4	2	6	9	2	2	1278	1	30069	1
5	1	34	9	3	3	1477	1	30069	1
6	1	20	8	3	3	2109	1	30069	1
7	1	15	6	3	3	1856	1	30069	1
8	1	36	10	2	2	863	1	30069	1
9	2	31	11	3	3	1098	1	30069	1
10	1	33	18	2	2	992	1	30069	1
11	1	11	11	3	1	2939	0	30069	1
12	1	14	4	3	3	1749	1	30069	1
13	2	35	7	3	1	1914	0	30069	1
14	2	4	1	2	2	1203	1	30069	1
15	2	5	16	1	1	2463	1	30069	1
16	1	9	3	3	3	1792	1	30069	1
17	2	23	2	1	1	1630	1	30069	1
18	2	13	4	3	3	2674	1	30069	1
19	2	17	3	3	3	1237	1	30069	1
20	1	8	15	3	3	2978	1	30069	1
21	2	28	18	2	2	3023	1	30069	1
22	1	29	16	1	2	1598	0	30069	1
23	2	22	10	1	1	3780	1	30069	1
24	1	27	13	3	2	2456	0	30069	1
25	2	21	14	2	2	1767	1	30069	1
26	2	16	17	3	3	3300	1	30069	1
27	1	25	2	1	1	4130	1	30069	1
28	1	3	7	3	3	1224	1	30069	1
29	1	30	1	2	2	2226	1	30069	1
30	2	18	15	1	1	1622	1	30069	1
31	2	26	5	3	3	1675	1	30069	1
32	2	19	13	3	3	4167	1	30069	1
33	1	2	5	1	1	990	1	30069	1
34	1	12	14	1	1	1782	1	30069	1
35	2	1	12	2	2	993	1	30069	1
36	2	32	6	2	2	2269	1	30069	1
1	1	1	14	2	2	2362	1	30074	1
2	2	32	3	2	2	1702	1	30074	1
3	1	6	16	2	2	1824	1	30074	1
4	2	23	14	2	2	2483	1	30074	1
5	2	33	12	3	3	2413	1	30074	1
6	2	12	4	2	2	1378	1	30074	1
7	2	31	7	2	2	1278	1	30074	1
8	1	8	18	3	3	1566	1	30074	1
9	2	29	18	3	3	1621	1	30074	1
10	2	24	2	3	3	1603	1	30074	1
11	2	30	5	3	3	1598	1	30074	1
12	2	22	13	1	1	1083	1	30074	1
13	1	18	1	2	2	3385	1	30074	1
14	2	36	11	2	2	1562	1	30074	1
15	1	11	2	1	1	1693	1	30074	1
16	2	2	6	3	3	1558	1	30074	1
17	1	20	3	1	1	1951	1	30074	1
18	1	16	6	2	2	3584	1	30074	1
19	1	34	13	1	1	1457	1	30074	1
20	1	21	12	3	3	938	1	30074	1
21	2	28	16	2	2	1905	1	30074	1
22	2	5	8	1	1	1438	1	30074	1
23	1	9	7	3	3	2295	1	30074	1
24	1	14	10	3	3	1319	1	30074	1
25	1	25	8	2	2	1064	1	30074	1
26	1	17	17	1	2	2475	0	30074	1
27	2	35	1	2	2	1749	1	30074	1
28	1	13	9	2	2	1153	1	30074	1
29	1	19	15	2	3	945	0	30074	1
30	2	26	15	1	1	1896	1	30074	1
31	2	10	9	1	1	1231	1	30074	1
32	1	27	4	2	2	795	1	30074	1
33	1	15	11	3	3	999	1	30074	1
34	1	3	5	2	2	626	1	30074	1
35	2	4	10	1	1	1562	1	30074	1
36	2	7	17	3	3	1530	1	30074	1
1	1	6	3	1	3	2819	0	30085	1
2	1	17	9	3	1	1916	0	30085	1
3	1	12	6	2	2	1735	1	30085	1
4	2	3	6	3	3	911	1	30085	1
5	2	7	15	1	3	1023	0	30085	1
6	2	11	3	1	1	911	1	30085	1
7	1	24	1	3	2	746	0	30085	1
8	1	32	12	1	2	715	0	30085	1
9	1	33	5	1	3	756	0	30085	1
10	1	34	7	3	2	704	0	30085	1
11	2	30	13	3	3	638	1	30085	1
12	1	8	18	2	1	702	0	30085	1
13	2	10	2	3	2	859	0	30085	1
14	1	14	8	2	2	779	1	30085	1
15	2	22	18	1	2	845	0	30085	1
16	1	28	15	1	2	896	0	30085	1
17	2	36	17	3	1	914	0	30085	1
18	1	2	11	2	2	836	1	30085	1
19	1	18	14	3	1	792	0	30085	1
20	2	4	7	3	1	794	0	30085	1
21	2	5	1	3	1	769	0	30085	1
22	2	27	11	3	3	825	1	30085	1
23	2	29	10	1	3	942	0	30085	1
24	1	21	16	2	2	868	1	30085	1
25	2	13	12	2	3	1127	0	30085	1
26	1	9	2	3	3	1050	1	30085	1
27	2	26	8	1	1	770	1	30085	1
28	2	25	16	3	3	851	1	30085	1
29	1	31	4	2	1	986	0	30085	1
30	2	15	9	2	3	785	0	30085	1
31	1	16	13	2	3	895	0	30085	1
32	2	19	14	3	1	1029	0	30085	1
33	1	23	10	2	2	960	1	30085	1
34	1	1	17	2	2	764	1	30085	1
35	2	35	4	1	1	933	1	30085	1
36	2	20	5	3	3	1625	1	30085	1
1	2	15	15	3	3	2432	1	30088	1
2	2	8	1	2	2	989	1	30088	1
3	1	36	2	1	1	1048	1	30088	1
4	1	29	4	1	3	1136	0	30088	1
5	2	31	10	2	1	1577	0	30088	1
6	2	16	18	1	2	687	0	30088	1
7	2	27	9	3	1	360	0	30088	1
8	2	24	13	2	2	559	1	30088	1
9	2	19	14	1	3	511	0	30088	1
10	1	7	1	3	2	760	0	30088	1
11	2	1	8	3	3	606	1	30088	1
12	1	2	10	2	1	646	0	30088	1
13	2	33	17	3	2	425	0	30088	1
14	1	14	14	1	3	389	0	30088	1
15	1	4	7	3	1	476	0	30088	1
16	1	23	8	2	2	375	1	30088	1
17	1	3	6	3	3	349	1	30088	1
18	1	21	9	3	1	490	0	30088	1
19	2	10	4	1	2	575	0	30088	1
20	2	5	6	1	2	617	0	30088	1
21	2	25	2	1	2	642	0	30088	1
22	1	12	17	2	3	639	0	30088	1
23	1	26	11	3	2	703	0	30088	1
24	2	22	5	3	1	597	0	30088	1
25	2	11	16	2	1	762	0	30088	1
26	1	6	5	2	2	572	1	30088	1
27	1	28	15	3	2	644	0	30088	1
28	2	30	12	3	3	852	1	30088	1
29	2	13	11	1	1	620	1	30088	1
30	1	35	3	1	2	567	0	30088	1
31	1	20	16	2	3	765	0	30088	1
32	2	9	3	1	2	710	0	30088	1
33	1	34	13	2	3	760	0	30088	1
34	2	17	7	1	1	1015	1	30088	1
35	1	32	12	3	2	656	0	30088	1
36	1	18	18	1	1	964	1	30088	1
1	2	2	11	2	2	1263	1	30090	1
2	1	7	7	1	1	1846	1	30090	1
3	2	33	15	1	1	1036	1	30090	1
4	1	21	6	1	1	902	1	30090	1
5	1	26	2	1	1	650	1	30090	1
6	2	30	2	3	3	1180	1	30090	1
7	1	32	1	3	2	769	0	30090	1
8	2	19	14	1	1	1008	1	30090	1
9	2	18	9	2	2	1299	1	30090	1
10	2	22	10	1	1	668	1	30090	1
11	2	3	18	2	2	809	1	30090	1
12	2	9	17	2	2	1023	1	30090	1
13	1	29	5	2	2	826	1	30090	1
14	2	6	7	2	1	860	0	30090	1
15	2	15	12	1	1	791	1	30090	1
16	2	13	1	3	3	1342	1	30090	1
17	2	34	13	1	1	666	1	30090	1
18	1	10	14	2	2	766	1	30090	1
19	1	31	17	2	2	1137	1	30090	1
20	1	8	8	3	3	1530	1	30090	1
21	1	23	15	1	1	1127	1	30090	1
22	2	16	4	2	2	751	1	30090	1
23	1	20	13	2	2	767	1	30090	1
24	2	4	3	3	3	1346	1	30090	1
25	1	5	4	2	2	1057	1	30090	1
26	2	14	8	2	2	1036	1	30090	1
27	2	24	6	2	2	667	1	30090	1
28	1	35	18	2	2	887	1	30090	1
29	1	28	3	2	2	651	1	30090	1
30	1	36	10	2	2	852	1	30090	1
31	1	11	9	2	2	1081	1	30090	1
32	1	1	12	2	2	658	1	30090	1
33	1	12	16	1	1	1281	1	30090	1
34	1	25	11	2	2	1278	1	30090	1
35	2	27	16	3	1	1429	0	30090	1
36	2	17	5	2	2	843	1	30090	1
1	2	19	14	1	1	2041	1	30091	1
2	1	6	8	1	1	1381	1	30091	1
3	1	11	2	3	3	1164	1	30091	1
4	2	24	17	1	1	1415	1	30091	1
5	2	27	3	1	1	2099	1	30091	1
6	1	10	4	1	1	1309	1	30091	1
7	1	20	11	3	3	1117	1	30091	1
8	2	30	9	2	2	1134	1	30091	1
9	2	17	10	3	3	1521	1	30091	1
10	2	26	8	2	2	1541	1	30091	1
11	2	33	1	3	3	1703	1	30091	1
12	1	16	13	3	1	1999	0	30091	1
13	1	18	5	1	1	1113	1	30091	1
14	1	36	7	2	2	997	1	30091	1
15	2	1	16	3	3	1925	1	30091	1
16	1	4	15	3	3	1322	1	30091	1
17	2	12	5	3	3	1249	1	30091	1
18	1	34	12	1	1	1036	1	30091	1
19	1	31	17	1	1	1234	1	30091	1
20	2	8	18	1	1	2156	1	30091	1
21	2	29	4	1	1	970	1	30091	1
22	1	7	16	1	1	1735	1	30091	1
23	1	25	9	1	1	1795	1	30091	1
24	2	2	2	2	2	1265	1	30091	1
25	2	5	13	1	1	1382	1	30091	1
26	2	23	12	1	1	1310	1	30091	1
27	1	22	1	3	3	1738	1	30091	1
28	1	35	3	3	3	1094	1	30091	1
29	1	15	10	2	2	1696	1	30091	1
30	1	13	14	3	3	1417	1	30091	1
31	1	9	18	1	1	1007	1	30091	1
32	2	32	11	1	1	1026	1	30091	1
33	1	21	6	3	3	1627	1	30091	1
34	2	3	15	2	2	1958	1	30091	1
35	2	28	6	1	1	1330	1	30091	1
36	2	14	7	1	1	1500	1	30091	1
1	2	16	17	3	3	4418	1	30095	1
2	2	17	9	1	1	2030	1	30095	1
3	2	19	15	2	2	1376	1	30095	1
4	2	5	6	3	3	1675	1	30095	1
5	2	30	10	3	3	2149	1	30095	1
6	1	8	1	3	3	3313	1	30095	1
7	1	26	10	3	3	1102	1	30095	1
8	1	6	4	1	1	3995	1	30095	1
9	1	28	12	2	2	733	1	30095	1
10	1	2	8	1	1	1823	1	30095	1
11	2	7	2	1	1	1188	1	30095	1
12	2	24	7	1	2	6182	0	30095	1
13	2	9	4	2	2	855	1	30095	1
14	1	22	17	1	3	3618	0	30095	1
15	2	13	13	2	2	1441	1	30095	1
16	2	4	11	3	3	1326	1	30095	1
17	1	35	2	1	1	1962	1	30095	1
18	1	31	3	3	3	5346	1	30095	1
19	2	33	18	1	1	1159	1	30095	1
20	2	3	12	1	1	972	1	30095	1
21	1	23	5	3	3	838	1	30095	1
22	1	15	18	1	1	896	1	30095	1
23	1	14	16	1	1	3258	1	30095	1
24	1	21	14	2	2	1925	1	30095	1
25	2	27	3	1	1	1041	1	30095	1
26	2	11	8	2	2	1991	1	30095	1
27	1	34	11	1	1	3129	1	30095	1
28	2	18	14	2	2	1424	1	30095	1
29	2	32	5	1	1	1356	1	30095	1
30	2	36	16	3	3	2052	1	30095	1
31	2	10	1	3	3	2023	1	30095	1
32	1	20	13	3	3	1679	1	30095	1
33	1	12	15	1	1	2151	1	30095	1
34	1	29	9	1	1	3125	1	30095	1
35	1	25	6	3	3	1219	1	30095	1
36	1	1	7	1	1	1841	1	30095	1
1	1	36	9	2	1	2866	0	30096	1
2	1	20	3	2	2	1162	1	30096	1
3	2	19	14	2	1	1349	0	30096	1
4	2	16	10	2	2	984	1	30096	1
5	2	8	1	3	3	1048	1	30096	1
6	1	34	13	1	3	1140	0	30096	1
7	2	1	9	1	3	1112	0	30096	1
8	2	27	18	1	1	1225	1	30096	1
9	2	15	16	3	2	1092	0	30096	1
10	1	29	1	1	1	1803	1	30096	1
11	2	18	12	2	2	1453	1	30096	1
12	2	14	15	2	2	1105	1	30096	1
13	1	31	12	3	1	1450	0	30096	1
14	2	6	2	3	3	2108	1	30096	1
15	1	9	17	3	3	1534	1	30096	1
16	1	32	11	2	2	913	1	30096	1
17	2	21	13	3	3	1724	1	30096	1
18	1	28	5	1	1	1012	1	30096	1
19	1	3	18	1	1	1371	1	30096	1
20	2	22	17	2	2	1722	1	30096	1
21	1	13	15	2	2	1524	1	30096	1
22	2	30	8	1	1	1162	1	30096	1
23	1	35	16	3	3	1709	1	30096	1
24	2	12	6	2	2	1058	1	30096	1
25	1	17	10	1	1	1196	1	30096	1
26	2	33	11	3	3	878	1	30096	1
27	1	10	14	1	1	2242	1	30096	1
28	2	24	5	3	3	1731	1	30096	1
29	1	5	4	3	3	2351	1	30096	1
30	2	11	3	3	3	1515	1	30096	1
31	2	25	4	3	3	1309	1	30096	1
32	1	4	8	1	1	1127	1	30096	1
33	1	7	6	1	2	2569	0	30096	1
34	1	2	2	2	2	1655	1	30096	1
35	1	23	7	1	1	776	1	30096	1
36	2	26	7	1	1	1095	1	30096	1
1	1	36	3	2	2	1834	1	30105	1
2	1	28	2	3	3	2460	1	30105	1
3	2	24	16	2	2	3191	1	30105	1
4	2	34	4	1	3	2569	0	30105	1
5	2	30	10	3	2	2590	0	30105	1
6	2	22	6	2	2	1914	1	30105	1
7	2	1	7	2	1	4138	0	30105	1
8	2	25	1	3	3	2907	1	30105	1
9	1	5	16	1	1	1119	1	30105	1
10	2	3	8	2	3	1639	0	30105	1
11	1	33	6	3	3	2164	1	30105	1
12	1	18	10	3	3	2520	1	30105	1
13	1	27	14	3	3	3908	1	30105	1
14	1	13	12	3	3	3071	1	30105	1
15	2	9	2	1	1	1411	1	30105	1
16	1	2	8	3	3	1391	1	30105	1
17	2	12	17	3	2	4670	0	30105	1
18	2	8	13	3	2	3131	0	30105	1
19	1	23	11	1	3	3617	0	30105	1
20	1	4	7	3	3	847	1	30105	1
21	2	10	15	3	3	2098	1	30105	1
22	1	16	4	3	3	1086	1	30105	1
23	2	17	12	1	1	1085	1	30105	1
24	1	29	18	2	2	2411	1	30105	1
25	2	7	18	2	1	2810	0	30105	1
26	1	15	13	3	3	2074	1	30105	1
27	1	11	5	3	3	1084	1	30105	1
28	2	20	9	1	1	2558	1	30105	1
29	2	35	11	1	1	1270	1	30105	1
30	1	6	17	2	2	2456	1	30105	1
31	1	31	15	1	1	1888	1	30105	1
32	1	19	9	1	1	1775	1	30105	1
33	1	21	1	1	3	1605	0	30105	1
34	2	14	5	3	3	2625	1	30105	1
35	2	26	14	3	3	2614	1	30105	1
36	2	32	3	2	1	2912	0	30105	1
1	1	10	11	1	1	2927	1	30116	1
2	2	36	15	2	2	2284	1	30116	1
3	2	34	1	2	2	2787	1	30116	1
4	2	1	6	1	1	1890	1	30116	1
5	1	30	3	2	2	1527	1	30116	1
6	1	9	6	3	3	2142	1	30116	1
7	1	20	15	2	2	1587	1	30116	1
8	1	18	18	3	2	1441	0	30116	1
9	2	2	5	2	2	2887	1	30116	1
10	2	14	13	2	2	2669	1	30116	1
11	1	22	7	1	1	1349	1	30116	1
12	2	21	4	1	1	1373	1	30116	1
13	2	33	9	2	2	3972	1	30116	1
14	1	25	9	2	2	1995	1	30116	1
15	1	17	4	2	2	2251	1	30116	1
16	2	7	18	3	2	2719	0	30116	1
17	2	8	3	1	1	1070	1	30116	1
18	2	13	14	1	1	2437	1	30116	1
19	1	29	17	1	1	1354	1	30116	1
20	1	5	13	1	1	1985	1	30116	1
21	1	19	1	2	2	2362	1	30116	1
22	2	12	11	1	1	1550	1	30116	1
23	1	6	2	1	1	1255	1	30116	1
24	2	26	2	2	2	2227	1	30116	1
25	2	11	12	1	1	2788	1	30116	1
26	2	24	8	2	2	1852	1	30116	1
27	1	3	16	3	3	1660	1	30116	1
28	1	16	8	3	3	1996	1	30116	1
29	1	31	10	2	2	1919	1	30116	1
30	1	15	5	2	2	977	1	30116	1
31	2	27	10	3	3	2352	1	30116	1
32	2	4	7	1	1	1813	1	30116	1
33	2	32	17	3	3	2018	1	30116	1
34	1	28	12	1	1	886	1	30116	1
35	2	23	16	2	2	3211	1	30116	1
36	1	35	14	1	1	1532	1	30116	1
1	2	4	10	2	2	3012	1	30118	1
2	1	6	6	2	3	1443	0	30118	1
3	1	17	12	2	2	724	1	30118	1
4	2	20	6	2	2	1089	1	30118	1
5	2	19	16	3	3	1498	1	30118	1
6	2	10	12	3	2	1146	0	30118	1
7	1	2	4	1	2	654	0	30118	1
8	1	22	5	1	3	808	0	30118	1
9	2	11	1	1	1	876	1	30118	1
10	2	16	4	2	2	712	1	30118	1
11	2	28	15	3	1	688	0	30118	1
12	2	1	14	3	1	708	0	30118	1
13	2	27	9	3	1	391	0	30118	1
14	1	32	1	3	2	538	0	30118	1
15	1	7	18	1	2	593	0	30118	1
16	1	31	3	3	2	528	0	30118	1
17	1	26	8	3	1	772	0	30118	1
18	2	23	3	1	2	570	0	30118	1
19	1	5	15	2	2	465	1	30118	1
20	1	15	13	1	1	696	1	30118	1
21	1	29	17	1	2	574	0	30118	1
22	1	24	9	3	2	553	0	30118	1
23	1	12	16	3	3	799	1	30118	1
24	2	8	18	1	3	666	0	30118	1
25	2	36	7	1	3	1160	0	30118	1
26	2	13	8	2	1	725	0	30118	1
27	2	25	5	2	2	5272	1	30118	1
28	1	33	7	3	3	2023	1	30118	1
29	2	34	13	3	3	1934	1	30118	1
30	1	18	14	1	1	1416	1	30118	1
31	2	30	2	2	2	2379	1	30118	1
32	2	3	11	2	2	1519	1	30118	1
33	1	21	10	2	2	884	1	30118	1
34	1	9	2	3	3	1998	1	30118	1
35	2	14	17	2	2	2950	1	30118	1
36	1	35	11	1	1	2486	1	30118	1
1	1	30	2	3	3	2544	1	30119	1
2	2	34	12	1	1	1462	1	30119	1
3	2	32	3	3	1	1239	0	30119	1
4	2	28	7	2	2	5637	1	30119	1
5	1	23	15	3	3	1852	1	30119	1
6	1	27	7	1	1	1412	1	30119	1
7	1	4	6	2	2	2675	1	30119	1
8	2	26	10	3	3	2170	1	30119	1
9	1	10	1	1	1	1588	1	30119	1
10	1	11	3	2	2	1306	1	30119	1
11	2	3	16	3	3	1710	1	30119	1
12	2	6	17	2	2	1734	1	30119	1
13	1	29	9	2	2	1924	1	30119	1
14	2	24	2	2	2	1906	1	30119	1
15	1	18	14	2	2	2450	1	30119	1
16	1	2	5	1	1	2567	1	30119	1
17	2	12	14	1	3	4166	0	30119	1
18	2	20	5	1	1	1477	1	30119	1
19	2	15	9	1	1	1585	1	30119	1
20	2	25	8	2	2	1671	1	30119	1
21	2	16	6	3	3	3440	1	30119	1
22	1	31	8	1	1	1924	1	30119	1
23	1	9	13	3	3	1560	1	30119	1
24	2	14	1	3	3	2041	1	30119	1
25	1	7	12	1	1	1794	1	30119	1
26	2	5	11	2	2	1743	1	30119	1
27	1	22	17	2	2	1670	1	30119	1
28	1	35	4	2	2	3744	1	30119	1
29	2	36	4	3	3	2519	1	30119	1
30	2	13	13	1	1	2895	1	30119	1
31	2	19	15	1	1	2377	1	30119	1
32	2	1	18	3	3	2154	1	30119	1
33	1	17	11	2	3	1999	0	30119	1
34	1	8	10	1	1	1166	1	30119	1
35	1	21	18	1	1	2053	1	30119	1
36	1	33	16	1	1	1698	1	30119	1
1	1	35	5	2	2	2860	1	30128	1
2	1	10	2	3	3	1819	1	30128	1
3	1	31	18	2	2	907	1	30128	1
4	1	11	6	1	1	1924	1	30128	1
5	1	6	16	1	1	1217	1	30128	1
6	1	23	12	2	2	848	1	30128	1
7	1	25	13	3	3	1282	1	30128	1
8	1	12	11	3	3	2395	1	30128	1
9	2	30	17	3	3	1356	1	30128	1
10	2	3	6	2	2	979	1	30128	1
11	2	19	7	1	3	2472	0	30128	1
12	1	8	17	1	1	1427	1	30128	1
13	2	16	18	2	2	2037	1	30128	1
14	2	14	8	1	2	2023	0	30128	1
15	2	28	10	2	2	1679	1	30128	1
16	1	36	15	1	1	1773	1	30128	1
17	2	27	14	1	2	3038	0	30128	1
18	1	1	7	3	3	2304	1	30128	1
19	1	4	9	3	3	1039	1	30128	1
20	2	29	15	2	3	2280	0	30128	1
21	2	13	1	2	1	2413	0	30128	1
22	2	34	9	1	1	1913	1	30128	1
23	1	33	8	1	1	3030	1	30128	1
24	2	15	4	2	2	2829	1	30128	1
25	1	9	4	3	3	2301	1	30128	1
26	2	21	5	3	3	2233	1	30128	1
27	2	26	3	2	2	2586	1	30128	1
28	1	7	14	1	1	2008	1	30128	1
29	1	2	3	3	3	1732	1	30128	1
30	2	17	16	1	1	2255	1	30128	1
31	1	32	1	1	1	1148	1	30128	1
32	1	5	10	2	2	1514	1	30128	1
33	2	22	2	2	2	1268	1	30128	1
34	2	18	11	3	3	1466	1	30128	1
35	2	24	12	2	2	1154	1	30128	1
36	2	20	13	1	1	1692	1	30128	1
1	1	11	10	1	1	1879	1	30181	1
2	2	5	7	3	3	2285	1	30181	1
3	1	22	15	2	2	2110	1	30181	1
4	1	18	11	3	3	2857	1	30181	1
5	2	19	17	1	1	1470	1	30181	1
6	2	9	9	2	2	1412	1	30181	1
7	1	7	18	3	3	1041	1	30181	1
8	1	21	3	3	3	1892	1	30181	1
9	1	12	9	2	2	2903	1	30181	1
10	2	20	11	3	3	1153	1	30181	1
11	1	32	17	3	3	1199	1	30181	1
12	2	34	10	1	1	1436	1	30181	1
13	1	8	5	3	3	1931	1	30181	1
14	2	1	4	3	3	1171	1	30181	1
15	1	28	8	3	3	1400	1	30181	1
16	1	31	13	2	2	2122	1	30181	1
17	2	13	12	2	2	982	1	30181	1
18	1	15	16	2	2	825	1	30181	1
19	2	27	8	2	2	1116	1	30181	1
20	2	4	13	3	3	989	1	30181	1
21	1	24	1	1	1	1714	1	30181	1
22	2	14	3	2	2	821	1	30181	1
23	1	6	6	2	2	1196	1	30181	1
24	2	10	15	2	2	1715	1	30181	1
25	2	23	2	3	3	1049	1	30181	1
26	1	35	7	3	3	1231	1	30181	1
27	1	16	4	2	2	1960	1	30181	1
28	2	26	14	3	3	1067	1	30181	1
29	2	33	6	1	1	1136	1	30181	1
30	2	36	16	3	3	1729	1	30181	1
31	1	30	12	1	1	1594	1	30181	1
32	2	29	5	3	3	1608	1	30181	1
33	2	3	18	3	3	1308	1	30181	1
34	1	17	2	1	1	795	1	30181	1
35	2	2	1	1	1	1328	1	30181	1
36	1	25	14	2	2	855	1	30181	1
1	1	3	16	3	3	4837	1	30217	1
2	2	18	17	1	1	1908	1	30217	1
3	1	36	9	2	2	3036	1	30217	1
4	2	9	15	1	1	1922	1	30217	1
5	1	19	18	2	2	1092	1	30217	1
6	1	32	1	2	2	1131	1	30217	1
7	2	13	2	1	1	1828	1	30217	1
8	2	11	7	2	2	1660	1	30217	1
9	2	26	16	1	1	3638	1	30217	1
10	1	34	15	3	3	3440	1	30217	1
11	1	17	5	1	1	2316	1	30217	1
12	1	8	12	3	3	1467	1	30217	1
13	2	1	18	3	3	1179	1	30217	1
14	1	15	17	3	3	1328	1	30217	1
15	2	21	10	2	2	2554	1	30217	1
16	2	33	11	1	1	2199	1	30217	1
17	1	14	11	3	3	2261	1	30217	1
18	2	25	4	2	2	3315	1	30217	1
19	2	12	3	3	3	1917	1	30217	1
20	2	22	12	2	2	2759	1	30217	1
21	1	2	2	1	1	1805	1	30217	1
22	1	24	14	3	3	2835	1	30217	1
23	2	6	1	3	3	2180	1	30217	1
24	1	29	13	2	2	1288	1	30217	1
25	1	7	3	3	3	2739	1	30217	1
26	2	16	13	2	2	3641	1	30217	1
27	1	10	8	1	1	2790	1	30217	1
28	2	23	14	3	3	1296	1	30217	1
29	1	5	6	2	2	1805	1	30217	1
30	2	4	8	1	1	2078	1	30217	1
31	2	35	9	1	1	2663	1	30217	1
32	2	28	5	2	2	1642	1	30217	1
33	1	30	7	3	3	2060	1	30217	1
34	1	20	4	1	1	1459	1	30217	1
35	1	31	10	1	1	1465	1	30217	1
36	2	27	6	1	1	2101	1	30217	1
1	1	13	4	3	3	3872	1	30227	1
2	1	28	18	3	3	2309	1	30227	1
3	2	1	17	2	2	1817	1	30227	1
4	1	31	13	2	2	1286	1	30227	1
5	2	18	3	1	1	1657	1	30227	1
6	2	23	2	2	2	1708	1	30227	1
7	1	29	12	3	3	1744	1	30227	1
8	1	24	8	2	2	1094	1	30227	1
9	2	14	16	2	2	1571	1	30227	1
10	2	36	4	3	3	2819	1	30227	1
11	2	33	13	1	1	1285	1	30227	1
12	1	2	7	1	1	1087	1	30227	1
13	2	35	8	3	3	1498	1	30227	1
14	2	30	9	1	1	1416	1	30227	1
15	1	16	10	3	3	1193	1	30227	1
16	1	6	14	3	3	1254	1	30227	1
17	2	8	6	2	2	1714	1	30227	1
18	2	7	10	2	2	1751	1	30227	1
19	2	34	14	2	2	1914	1	30227	1
20	1	9	3	3	3	1906	1	30227	1
21	1	4	9	1	1	1567	1	30227	1
22	2	22	15	3	3	1308	1	30227	1
23	2	11	1	1	1	1286	1	30227	1
24	1	27	16	1	1	1172	1	30227	1
25	2	21	11	2	2	2045	1	30227	1
26	1	3	1	3	3	1666	1	30227	1
27	1	20	6	2	2	1930	1	30227	1
28	1	26	15	3	3	1375	1	30227	1
29	1	19	11	1	1	2388	1	30227	1
30	2	25	7	2	2	1691	1	30227	1
31	1	10	5	1	1	1041	1	30227	1
32	2	32	18	3	3	1465	1	30227	1
33	1	12	17	2	2	1126	1	30227	1
34	2	17	5	3	3	1126	1	30227	1
35	2	15	12	1	1	1210	1	30227	1
36	1	5	2	3	3	3179	1	30227	1
1	1	11	16	1	1	2042	1	30236	1
2	1	26	5	2	2	1309	1	30236	1
3	1	31	7	2	2	1325	1	30236	1
4	1	16	14	2	2	1313	1	30236	1
5	2	35	3	3	3	2796	1	30236	1
6	1	7	11	3	1	1079	0	30236	1
7	1	10	3	1	1	2856	1	30236	1
8	1	30	1	2	2	1480	1	30236	1
9	2	25	1	1	1	1164	1	30236	1
10	2	8	7	1	1	1560	1	30236	1
11	2	2	15	2	2	2742	1	30236	1
12	1	9	2	3	3	1143	1	30236	1
13	1	6	17	1	1	857	1	30236	1
14	1	3	6	3	3	2102	1	30236	1
15	2	4	5	1	1	925	1	30236	1
16	1	23	18	1	1	930	1	30236	1
17	2	29	12	1	1	876	1	30236	1
18	1	27	15	3	3	1377	1	30236	1
19	2	5	2	3	3	1496	1	30236	1
20	2	20	6	3	3	1314	1	30236	1
21	1	14	10	3	3	1003	1	30236	1
22	1	28	12	1	1	943	1	30236	1
23	2	18	8	1	1	1009	1	30236	1
24	2	19	14	3	3	1982	1	30236	1
25	1	17	4	3	3	1624	1	30236	1
26	1	36	9	1	1	953	1	30236	1
27	2	1	13	3	3	1077	1	30236	1
28	1	33	8	3	3	1283	1	30236	1
29	2	12	4	1	1	981	1	30236	1
30	2	22	16	2	2	1862	1	30236	1
31	2	24	10	3	3	1641	1	30236	1
32	2	15	17	1	1	1083	1	30236	1
33	1	13	13	1	1	1537	1	30236	1
34	2	34	9	2	2	977	1	30236	1
35	2	21	18	1	1	1270	1	30236	1
36	2	32	11	2	2	1111	1	30236	1
1	2	10	10	2	2	3380	1	30242	1
2	2	9	5	3	3	1997	1	30242	1
3	1	14	17	1	1	1646	1	30242	1
4	2	6	15	1	1	1528	1	30242	1
5	2	28	18	3	3	1268	1	30242	1
6	2	11	14	2	2	1165	1	30242	1
7	1	26	12	1	2	2029	0	30242	1
8	1	22	11	1	1	1228	1	30242	1
9	2	17	1	1	1	1774	1	30242	1
10	1	8	3	3	3	1368	1	30242	1
11	2	13	6	2	2	1102	1	30242	1
12	1	1	4	2	2	1071	1	30242	1
13	1	4	9	2	2	1383	1	30242	1
14	2	18	8	3	3	1586	1	30242	1
15	2	23	12	3	3	1829	1	30242	1
16	1	35	16	3	3	1183	1	30242	1
17	1	34	10	3	3	2374	1	30242	1
18	1	7	7	3	3	1583	1	30242	1
19	1	2	14	1	1	3998	1	30242	1
20	1	20	8	1	2	4284	0	30242	1
21	1	12	2	2	2	1473	1	30242	1
22	2	36	4	3	1	1483	0	30242	1
23	1	3	15	2	2	908	1	30242	1
24	2	32	9	3	3	3771	1	30242	1
25	2	31	13	2	2	1673	1	30242	1
26	2	30	3	3	3	1220	1	30242	1
27	1	16	5	3	3	1633	1	30242	1
28	2	27	2	1	1	952	1	30242	1
29	1	19	6	1	1	1774	1	30242	1
30	1	15	13	1	1	2304	1	30242	1
31	1	21	1	3	2	2022	0	30242	1
32	2	24	16	3	3	2083	1	30242	1
33	2	33	17	3	3	2680	1	30242	1
34	2	29	11	3	3	2931	1	30242	1
35	1	5	18	2	2	1131	1	30242	1
36	2	25	7	3	3	4028	1	30242	1
1	1	31	15	2	2	2352	1	30255	1
2	1	4	18	3	3	1165	1	30255	1
3	1	36	17	2	2	1014	1	30255	1
4	2	29	9	3	3	1625	1	30255	1
5	1	32	13	1	1	3491	1	30255	1
6	2	24	10	1	1	1558	1	30255	1
7	1	23	14	2	2	1786	1	30255	1
8	1	6	8	3	3	3630	1	30255	1
9	2	34	6	2	2	1361	1	30255	1
10	1	33	5	1	1	983	1	30255	1
11	1	35	2	3	3	1221	1	30255	1
12	2	10	14	1	1	1509	1	30255	1
13	1	8	4	3	3	1997	1	30255	1
14	2	22	8	2	2	1637	1	30255	1
15	2	30	17	1	1	1417	1	30255	1
16	2	16	15	1	1	1309	1	30255	1
17	2	19	1	3	3	1614	1	30255	1
18	1	27	1	1	1	1428	1	30255	1
19	1	9	11	3	3	1293	1	30255	1
20	2	1	3	2	2	1145	1	30255	1
21	2	20	11	3	3	1017	1	30255	1
22	2	15	2	2	2	1721	1	30255	1
23	1	13	7	3	3	1469	1	30255	1
24	2	2	7	2	2	1428	1	30255	1
25	1	17	10	2	2	1328	1	30255	1
26	1	25	3	3	3	1143	1	30255	1
27	2	7	16	1	1	2131	1	30255	1
28	1	11	12	2	2	1092	1	30255	1
29	2	28	13	2	2	1221	1	30255	1
30	1	3	9	2	2	1060	1	30255	1
31	2	18	4	3	3	945	1	30255	1
32	2	21	18	2	2	2608	1	30255	1
33	1	12	6	2	2	902	1	30255	1
34	2	26	5	2	2	1128	1	30255	1
35	2	5	12	2	2	1281	1	30255	1
36	1	14	16	2	2	1650	1	30255	1
1	1	1	15	2	2	3514	1	30274	1
2	1	19	4	3	3	3124	1	30274	1
3	1	12	12	3	3	1386	1	30274	1
4	2	11	4	1	1	1241	1	30274	1
5	1	21	17	2	2	2666	1	30274	1
6	2	35	16	3	3	2140	1	30274	1
7	2	7	11	1	1	1590	1	30274	1
8	1	24	9	1	1	2592	1	30274	1
9	1	33	5	3	3	1847	1	30274	1
10	2	16	10	1	1	1791	1	30274	1
11	2	29	5	1	1	2910	1	30274	1
12	1	2	6	1	1	1470	1	30274	1
13	2	27	3	3	3	2727	1	30274	1
14	2	22	13	2	2	2287	1	30274	1
15	2	8	6	2	2	1647	1	30274	1
16	1	17	11	3	3	3258	1	30274	1
17	1	30	16	3	3	1548	1	30274	1
18	1	3	3	1	2	4303	0	30274	1
19	2	18	8	2	2	2466	1	30274	1
20	2	15	2	2	1	2121	0	30274	1
21	1	23	2	1	1	1107	1	30274	1
22	1	14	7	1	1	2089	1	30274	1
23	2	4	15	2	2	2704	1	30274	1
24	1	5	18	3	3	1600	1	30274	1
25	1	31	14	1	3	2040	0	30274	1
26	2	20	7	3	3	4092	1	30274	1
27	2	34	12	1	1	3502	1	30274	1
28	1	28	10	1	1	1267	1	30274	1
29	2	9	18	1	1	958	1	30274	1
30	2	36	1	2	2	4704	1	30274	1
31	1	26	13	3	3	1883	1	30274	1
32	1	32	1	3	3	3907	1	30274	1
33	1	6	8	1	1	2383	1	30274	1
34	2	13	17	2	3	3220	0	30274	1
35	2	10	14	1	2	2185	0	30274	1
36	2	25	9	3	3	5089	1	30274	1
1	2	8	16	1	1	4029	1	30283	1
2	2	20	8	3	3	3381	1	30283	1
3	1	16	10	2	2	3379	1	30283	1
4	1	24	17	2	1	1622	0	30283	1
5	2	9	14	1	1	3730	1	30283	1
6	1	4	9	3	3	1560	1	30283	1
7	2	1	10	1	1	1074	1	30283	1
8	2	34	17	1	1	2663	1	30283	1
9	1	13	14	3	3	1727	1	30283	1
10	2	30	6	2	2	4614	1	30283	1
11	1	6	11	2	2	2371	1	30283	1
12	2	29	13	3	3	3109	1	30283	1
13	2	14	7	1	1	1791	1	30283	1
14	1	11	15	2	2	2241	1	30283	1
15	1	25	8	1	1	3012	1	30283	1
16	2	36	11	1	1	4272	1	30283	1
17	2	21	15	1	1	2760	1	30283	1
18	2	33	1	1	1	2891	1	30283	1
19	2	27	18	2	2	1096	1	30283	1
20	1	22	5	2	2	3124	1	30283	1
21	1	12	1	1	1	3016	1	30283	1
22	2	10	5	3	3	2595	1	30283	1
23	1	23	2	3	3	2505	1	30283	1
24	1	28	12	3	3	1198	1	30283	1
25	1	35	18	1	1	1993	1	30283	1
26	1	5	16	3	3	1580	1	30283	1
27	2	3	3	3	1	4427	0	30283	1
28	1	17	13	1	3	2441	0	30283	1
29	1	7	4	3	3	3454	1	30283	1
30	2	32	12	2	1	1053	0	30283	1
31	1	15	3	2	1	1988	0	30283	1
32	2	2	9	1	2	2714	0	30283	1
33	1	26	7	2	2	2327	1	30283	1
34	2	18	4	2	2	2259	1	30283	1
35	1	19	6	2	2	2162	1	30283	1
36	2	31	2	3	3	3162	1	30283	1
1	2	6	9	2	2	1997	1	30295	1
2	1	29	6	1	1	1411	1	30295	1
3	1	33	18	3	3	1049	1	30295	1
4	2	3	14	2	2	2795	1	30295	1
5	2	24	5	2	2	1048	1	30295	1
6	1	10	9	1	1	1855	1	30295	1
7	2	31	16	2	2	1697	1	30295	1
8	1	11	8	1	1	5521	1	30295	1
9	2	12	2	1	1	1080	1	30295	1
10	2	14	18	2	2	3585	1	30295	1
11	2	32	4	2	2	692	1	30295	1
12	2	9	13	3	3	920	1	30295	1
13	1	4	2	1	1	1561	1	30295	1
14	1	30	17	3	3	1663	1	30295	1
15	1	28	12	3	3	2229	1	30295	1
16	1	23	15	1	1	1175	1	30295	1
17	2	2	1	3	3	1170	1	30295	1
18	2	8	10	2	2	2682	1	30295	1
19	1	16	5	1	1	1161	1	30295	1
20	1	15	1	3	1	4060	0	30295	1
21	1	25	11	1	1	1902	1	30295	1
22	1	27	3	1	1	1546	1	30295	1
23	2	5	11	1	1	1526	1	30295	1
24	1	18	4	2	2	2579	1	30295	1
25	2	22	6	3	3	2036	1	30295	1
26	2	35	7	1	1	1564	1	30295	1
27	2	17	3	3	3	1255	1	30295	1
28	1	20	16	1	1	1041	1	30295	1
29	2	36	17	3	3	1888	1	30295	1
30	1	26	13	2	2	3752	1	30295	1
31	1	21	14	3	3	3231	1	30295	1
32	2	13	8	2	2	1179	1	30295	1
33	1	19	10	1	1	1141	1	30295	1
34	2	1	12	1	1	1133	1	30295	1
35	2	34	15	1	1	2178	1	30295	1
36	1	7	7	2	2	2570	1	30295	1
1	1	7	18	2	2	2059	1	30330	1
2	2	16	15	1	1	2443	1	30330	1
3	1	28	13	3	3	1856	1	30330	1
4	2	31	17	2	2	1822	1	30330	1
5	2	36	12	1	1	1265	1	30330	1
6	1	35	15	3	3	2044	1	30330	1
7	1	22	4	2	1	1945	0	30330	1
8	1	19	1	2	2	1686	1	30330	1
9	2	14	3	2	2	1461	1	30330	1
10	2	29	13	3	3	1734	1	30330	1
11	1	26	7	3	3	2526	1	30330	1
12	2	11	2	2	2	1152	1	30330	1
13	2	21	4	3	3	1724	1	30330	1
14	2	25	5	2	2	1281	1	30330	1
15	1	5	2	3	3	2241	1	30330	1
16	1	34	5	1	1	3146	1	30330	1
17	1	27	16	1	1	807	1	30330	1
18	1	15	14	3	3	1354	1	30330	1
19	1	12	10	2	2	1398	1	30330	1
20	2	18	10	1	1	1012	1	30330	1
21	2	32	7	2	2	1188	1	30330	1
22	1	4	8	1	1	2219	1	30330	1
23	1	8	3	2	2	1540	1	30330	1
24	2	13	6	3	3	1519	1	30330	1
25	1	9	11	1	1	1333	1	30330	1
26	2	2	8	2	2	1823	1	30330	1
27	1	6	9	2	2	3005	1	30330	1
28	2	10	1	2	2	1761	1	30330	1
29	1	20	17	3	3	1322	1	30330	1
30	2	33	9	3	3	1543	1	30330	1
31	1	17	12	2	2	2200	1	30330	1
32	2	30	11	3	3	2131	1	30330	1
33	2	3	16	1	1	1410	1	30330	1
34	2	24	14	3	3	1601	1	30330	1
35	1	23	6	3	3	2309	1	30330	1
36	2	1	18	1	1	982	1	30330	1
1	2	10	10	1	1	2144	1	30346	1
2	2	35	4	3	2	3375	0	30346	1
3	1	15	5	1	1	2011	1	30346	1
4	1	36	4	1	1	1493	1	30346	1
5	2	17	6	2	2	1407	1	30346	1
6	1	16	3	1	3	2215	0	30346	1
7	2	34	3	2	2	1008	1	30346	1
8	1	27	15	1	2	2693	0	30346	1
9	1	18	8	1	1	1984	1	30346	1
10	2	3	15	1	1	1824	1	30346	1
11	1	13	12	2	2	948	1	30346	1
12	2	25	17	3	3	1971	1	30346	1
13	1	26	7	3	3	2098	1	30346	1
14	1	9	10	3	1	2235	0	30346	1
15	1	23	13	1	2	1640	0	30346	1
16	2	8	11	3	3	1767	1	30346	1
17	1	2	18	3	2	812	0	30346	1
18	1	30	17	3	3	1173	1	30346	1
19	2	5	16	3	3	2507	1	30346	1
20	1	19	2	1	1	1651	1	30346	1
21	2	31	8	3	3	1661	1	30346	1
22	1	29	6	1	2	1271	0	30346	1
23	2	6	18	3	3	1550	1	30346	1
24	1	20	14	2	3	1520	0	30346	1
25	2	14	5	1	1	3347	1	30346	1
26	1	21	1	3	1	1537	0	30346	1
27	2	32	13	1	1	1137	1	30346	1
28	2	28	1	1	1	2396	1	30346	1
29	2	11	14	3	3	3147	1	30346	1
30	1	24	16	1	2	1835	0	30346	1
31	2	7	9	2	2	2094	1	30346	1
32	2	22	12	1	1	1962	1	30346	1
33	1	4	11	1	1	1324	1	30346	1
34	2	12	7	1	1	2945	1	30346	1
35	2	33	2	3	3	1808	1	30346	1
36	1	1	9	1	1	1761	1	30346	1
1	2	23	14	2	2	2119	1	30376	1
2	2	16	7	3	3	2418	1	30376	1
3	1	26	9	3	3	2694	1	30376	1
4	2	19	13	3	3	1271	1	30376	1
5	2	2	2	2	2	1780	1	30376	1
6	2	12	4	2	2	1762	1	30376	1
7	2	15	10	2	2	2201	1	30376	1
8	2	10	8	3	3	1515	1	30376	1
9	2	32	16	3	3	2154	1	30376	1
10	1	28	13	1	1	1547	1	30376	1
11	1	13	12	1	1	1726	1	30376	1
12	1	9	14	2	2	941	1	30376	1
13	1	11	11	1	1	1626	1	30376	1
14	1	14	3	2	2	922	1	30376	1
15	2	27	1	2	2	1931	1	30376	1
16	2	18	18	1	1	912	1	30376	1
17	2	31	6	2	2	1093	1	30376	1
18	2	25	11	2	2	1092	1	30376	1
19	2	29	17	3	3	1636	1	30376	1
20	1	35	17	2	2	1525	1	30376	1
21	1	24	10	2	2	1182	1	30376	1
22	2	22	3	1	2	1485	0	30376	1
23	1	20	1	2	2	2243	1	30376	1
24	2	8	12	1	1	1503	1	30376	1
25	2	36	15	3	3	1491	1	30376	1
26	2	21	9	1	1	1467	1	30376	1
27	2	34	5	1	1	1614	1	30376	1
28	1	3	16	2	2	1001	1	30376	1
29	1	33	4	3	3	1841	1	30376	1
30	1	1	18	3	3	1043	1	30376	1
31	1	17	15	3	3	1440	1	30376	1
32	1	4	2	2	2	910	1	30376	1
33	1	7	7	2	2	2142	1	30376	1
34	1	6	5	2	2	815	1	30376	1
35	1	5	8	2	2	2247	1	30376	1
36	1	30	6	3	3	1220	1	30376	1
1	2	28	15	1	1	2233	1	30395	1
2	1	3	15	2	2	1412	1	30395	1
3	1	22	18	2	2	1414	1	30395	1
4	2	24	2	2	2	1025	1	30395	1
5	1	17	2	2	2	1184	1	30395	1
6	2	21	3	1	1	1140	1	30395	1
7	1	7	13	2	2	1968	1	30395	1
8	1	26	10	3	3	1370	1	30395	1
9	2	14	18	1	1	1603	1	30395	1
10	2	34	6	1	1	2029	1	30395	1
11	1	5	17	2	2	1145	1	30395	1
12	2	19	8	1	1	1299	1	30395	1
13	2	4	9	1	1	1140	1	30395	1
14	1	32	16	3	3	846	1	30395	1
15	1	10	8	2	2	1102	1	30395	1
16	2	23	14	3	3	1404	1	30395	1
17	2	11	10	1	1	977	1	30395	1
18	1	2	9	1	1	1974	1	30395	1
19	2	1	11	3	3	992	1	30395	1
20	1	35	7	1	1	1541	1	30395	1
21	1	29	14	1	1	1287	1	30395	1
22	1	9	6	2	2	798	1	30395	1
23	2	16	7	1	1	1096	1	30395	1
24	1	15	3	2	2	1058	1	30395	1
25	1	6	1	2	2	940	1	30395	1
26	2	27	1	2	2	1182	1	30395	1
27	2	12	13	2	2	998	1	30395	1
28	1	18	11	2	2	1843	1	30395	1
29	2	33	17	1	1	1379	1	30395	1
30	2	25	12	2	2	856	1	30395	1
31	1	13	12	1	1	1099	1	30395	1
32	2	31	16	2	2	1688	1	30395	1
33	2	36	4	1	1	1436	1	30395	1
34	1	8	4	3	3	2026	1	30395	1
35	1	30	5	3	3	1811	1	30395	1
36	2	20	5	1	1	1114	1	30395	1
1	1	14	12	3	3	1498	1	30400	1
2	2	11	5	1	1	1505	1	30400	1
3	2	24	8	2	2	1291	1	30400	1
4	1	29	11	3	3	1285	1	30400	1
5	2	16	2	3	3	4066	1	30400	1
6	2	33	10	1	1	1293	1	30400	1
7	1	1	1	2	2	4265	1	30400	1
8	1	20	2	1	1	2843	1	30400	1
9	1	27	15	1	1	1544	1	30400	1
10	1	15	8	2	2	1736	1	30400	1
11	1	12	4	1	1	2855	1	30400	1
12	1	31	3	3	3	1929	1	30400	1
13	2	21	6	3	3	2415	1	30400	1
14	2	10	16	3	3	2815	1	30400	1
15	2	13	9	3	3	2471	1	30400	1
16	2	34	17	2	2	2372	1	30400	1
17	2	6	11	2	2	1743	1	30400	1
18	2	25	12	2	2	1395	1	30400	1
19	1	17	13	3	3	6629	1	30400	1
20	1	2	17	2	2	987	1	30400	1
21	2	7	14	2	2	3044	1	30400	1
22	1	36	7	2	2	1207	1	30400	1
23	1	22	16	1	1	1207	1	30400	1
24	2	3	4	2	2	1004	1	30400	1
25	2	35	13	2	2	1249	1	30400	1
26	1	30	9	1	1	1119	1	30400	1
27	1	9	14	2	2	1633	1	30400	1
28	2	5	1	2	2	1437	1	30400	1
29	2	23	18	1	1	1606	1	30400	1
30	1	18	10	1	1	1170	1	30400	1
31	2	19	15	3	3	3918	1	30400	1
32	1	26	5	3	3	1935	1	30400	1
33	1	32	18	1	1	817	1	30400	1
34	2	28	7	2	2	1300	1	30400	1
35	1	8	6	2	2	1651	1	30400	1
36	2	4	3	2	2	1065	1	30400	1
1	1	27	17	2	2	4478	1	30403	1
2	1	15	18	1	1	1359	1	30403	1
3	2	6	17	2	2	5052	1	30403	1
4	2	36	6	1	1	2725	1	30403	1
5	1	25	2	3	3	1585	1	30403	1
6	2	28	4	1	1	2045	1	30403	1
7	1	8	7	3	3	1463	1	30403	1
8	1	32	8	2	3	3940	0	30403	1
9	1	5	4	3	1	3265	0	30403	1
10	2	1	8	3	3	1319	1	30403	1
11	2	30	13	2	2	1222	1	30403	1
12	1	9	12	3	3	888	1	30403	1
13	1	22	9	1	1	1826	1	30403	1
14	2	4	11	3	1	1099	0	30403	1
15	2	26	1	1	1	2318	1	30403	1
16	2	12	7	3	3	2723	1	30403	1
17	1	13	5	3	3	2372	1	30403	1
18	2	21	15	1	3	2654	0	30403	1
19	1	31	3	3	3	1190	1	30403	1
20	2	10	16	2	2	3100	1	30403	1
21	1	11	13	2	2	1488	1	30403	1
22	1	17	1	1	1	1817	1	30403	1
23	2	35	10	1	1	2163	1	30403	1
24	1	18	10	2	2	1692	1	30403	1
25	1	2	14	2	2	2790	1	30403	1
26	1	34	16	1	1	1694	1	30403	1
27	2	29	3	1	1	1331	1	30403	1
28	2	3	2	2	2	1353	1	30403	1
29	1	19	6	1	1	1220	1	30403	1
30	2	33	18	2	2	2460	1	30403	1
31	2	20	12	3	1	2527	0	30403	1
32	1	24	11	1	1	2121	1	30403	1
33	2	7	9	1	1	1054	1	30403	1
34	2	16	5	1	3	3498	0	30403	1
35	1	23	15	1	1	1120	1	30403	1
36	2	14	14	2	1	1420	0	30403	1
1	2	21	4	2	2	1193	1	30407	1
2	1	33	13	1	1	1474	1	30407	1
3	1	22	6	1	1	1052	1	30407	1
4	1	6	15	2	2	770	1	30407	1
5	2	2	11	1	1	1019	1	30407	1
6	2	4	7	2	1	1465	0	30407	1
7	1	19	17	3	3	1334	1	30407	1
8	1	1	4	3	3	1265	1	30407	1
9	1	12	11	1	1	1134	1	30407	1
10	2	7	17	3	3	1992	1	30407	1
11	1	3	1	2	2	1809	1	30407	1
12	1	17	3	2	2	1054	1	30407	1
13	2	32	14	1	1	948	1	30407	1
14	1	9	2	3	3	1050	1	30407	1
15	1	24	12	3	3	1218	1	30407	1
16	1	16	8	3	3	1112	1	30407	1
17	2	25	8	1	1	952	1	30407	1
18	2	30	9	2	2	1735	1	30407	1
19	1	27	9	3	3	1711	1	30407	1
20	2	13	12	1	1	1255	1	30407	1
21	2	5	10	2	2	1286	1	30407	1
22	1	10	7	3	3	1537	1	30407	1
23	2	15	2	1	1	2216	1	30407	1
24	2	8	16	1	1	1557	1	30407	1
25	2	20	1	3	1	2058	0	30407	1
26	2	14	13	3	3	1743	1	30407	1
27	1	29	14	1	1	1239	1	30407	1
28	1	31	16	1	1	794	1	30407	1
29	2	28	15	1	1	2680	1	30407	1
30	1	35	10	2	2	958	1	30407	1
31	1	11	5	1	1	2513	1	30407	1
32	2	18	3	2	2	998	1	30407	1
33	2	26	6	2	2	1583	1	30407	1
34	1	36	18	3	3	1377	1	30407	1
35	2	34	18	1	1	1661	1	30407	1
36	2	23	5	1	1	1375	1	30407	1
1	2	7	15	2	3	6275	0	30412	1
2	1	34	1	2	2	2774	1	30412	1
3	2	30	14	1	1	2996	1	30412	1
4	1	32	4	1	3	1616	0	30412	1
5	1	21	7	3	2	1664	0	30412	1
6	2	6	1	3	1	2160	0	30412	1
7	1	23	8	2	1	1381	0	30412	1
8	1	20	18	2	2	962	1	30412	1
9	1	3	5	1	1	1457	1	30412	1
10	1	1	9	2	2	773	1	30412	1
11	2	11	18	1	1	1724	1	30412	1
12	1	35	12	3	3	2504	1	30412	1
13	2	4	8	1	1	4199	1	30412	1
14	2	10	11	2	2	2360	1	30412	1
15	1	18	10	1	1	1452	1	30412	1
16	1	14	17	2	2	1812	1	30412	1
17	2	27	3	2	3	1357	0	30412	1
18	1	19	11	3	3	1621	1	30412	1
19	1	28	3	1	1	1423	1	30412	1
20	1	33	15	1	2	1812	0	30412	1
21	2	31	6	3	3	2021	1	30412	1
22	2	16	5	1	2	1432	0	30412	1
23	2	26	16	1	3	1769	0	30412	1
24	1	2	2	1	1	1057	1	30412	1
25	1	22	16	3	3	1486	1	30412	1
26	2	29	7	3	1	1728	0	30412	1
27	1	8	14	2	2	1000	1	30412	1
28	2	13	10	2	3	954	0	30412	1
29	2	5	17	1	3	1719	0	30412	1
30	2	17	4	3	3	1338	1	30412	1
31	1	24	6	3	3	1765	1	30412	1
32	1	25	13	1	1	1364	1	30412	1
33	2	9	13	1	1	1419	1	30412	1
34	2	15	2	2	1	1804	0	30412	1
35	2	36	9	3	2	1928	0	30412	1
36	2	12	12	3	3	2769	1	30412	1
1	1	30	2	3	3	2922	1	30417	1
2	1	31	3	2	2	787	1	30417	1
3	1	17	13	3	3	1009	1	30417	1
4	2	27	11	1	1	887	1	30417	1
5	2	7	14	1	1	1462	1	30417	1
6	2	23	4	2	2	2221	1	30417	1
7	1	25	16	3	3	1844	1	30417	1
8	1	32	6	2	2	1427	1	30417	1
9	1	34	5	2	2	782	1	30417	1
10	1	12	9	3	3	1415	1	30417	1
11	1	33	7	3	3	1487	1	30417	1
12	1	14	1	1	1	1240	1	30417	1
13	1	3	10	1	1	902	1	30417	1
14	2	9	13	1	1	903	1	30417	1
15	2	15	7	1	1	1011	1	30417	1
16	2	20	3	3	3	3346	1	30417	1
17	2	1	12	1	1	755	1	30417	1
18	1	6	11	2	2	827	1	30417	1
19	2	22	10	3	3	2066	1	30417	1
20	1	8	8	1	1	1759	1	30417	1
21	1	28	12	3	3	1072	1	30417	1
22	2	2	17	3	3	1224	1	30417	1
23	1	26	17	1	1	2689	1	30417	1
24	2	18	6	1	1	923	1	30417	1
25	2	13	9	1	1	1427	1	30417	1
26	2	21	2	1	1	1489	1	30417	1
27	2	35	1	2	2	2126	1	30417	1
28	2	24	16	3	3	1618	1	30417	1
29	1	29	15	2	2	1551	1	30417	1
30	1	5	18	2	2	822	1	30417	1
31	1	16	4	2	2	2545	1	30417	1
32	2	19	18	1	1	2299	1	30417	1
33	2	11	5	3	3	1041	1	30417	1
34	2	4	8	3	3	1691	1	30417	1
35	2	36	15	2	2	1270	1	30417	1
36	1	10	14	1	1	1162	1	30417	1
1	1	1	11	1	1	3083	1	30426	1
2	1	9	8	2	2	3615	1	30426	1
3	1	30	14	2	2	910	1	30426	1
4	1	25	3	1	1	2512	1	30426	1
5	2	2	7	1	1	1908	1	30426	1
6	2	3	1	3	3	1588	1	30426	1
7	2	16	12	2	2	907	1	30426	1
8	1	21	7	2	2	1739	1	30426	1
9	2	28	15	3	3	1807	1	30426	1
10	2	24	9	1	1	1210	1	30426	1
11	2	6	13	3	3	823	1	30426	1
12	2	35	3	3	3	1257	1	30426	1
13	2	7	11	1	1	1279	1	30426	1
14	1	18	17	1	1	1096	1	30426	1
15	2	22	16	2	2	1176	1	30426	1
16	1	12	4	1	1	1582	1	30426	1
17	1	26	18	2	2	594	1	30426	1
18	1	11	16	2	2	682	1	30426	1
19	1	14	15	1	1	1304	1	30426	1
20	1	34	2	1	1	1159	1	30426	1
21	1	29	6	2	2	2915	1	30426	1
22	1	17	9	3	3	796	1	30426	1
23	2	15	5	3	3	891	1	30426	1
24	2	13	10	1	1	2440	1	30426	1
25	2	36	17	1	1	1150	1	30426	1
26	1	8	12	3	3	661	1	30426	1
27	2	23	4	3	3	687	1	30426	1
28	1	10	5	2	2	747	1	30426	1
29	2	5	18	1	1	1305	1	30426	1
30	1	31	10	1	1	989	1	30426	1
31	1	33	13	1	1	821	1	30426	1
32	1	27	1	3	3	1032	1	30426	1
33	2	19	6	1	1	1168	1	30426	1
34	2	32	14	3	3	1854	1	30426	1
35	2	20	8	3	3	1291	1	30426	1
36	2	4	2	2	2	788	1	30426	1
1	2	25	18	3	1	6968	0	30432	1
2	1	20	14	3	3	3110	1	30432	1
3	2	32	3	3	3	3867	1	30432	1
4	2	31	7	3	3	2901	1	30432	1
5	1	22	9	1	3	5449	0	30432	1
6	1	26	10	2	2	2073	1	30432	1
7	1	6	4	3	3	1459	1	30432	1
8	1	35	7	3	3	3073	1	30432	1
9	1	12	2	3	3	3843	1	30432	1
10	2	8	16	2	2	4139	1	30432	1
11	2	5	17	1	3	3225	0	30432	1
12	1	7	18	1	1	2101	1	30432	1
13	2	24	15	1	2	2959	0	30432	1
14	2	17	12	3	3	1206	1	30432	1
15	2	23	10	3	3	3013	1	30432	1
16	2	27	14	1	1	2810	1	30432	1
17	1	34	16	3	3	2749	1	30432	1
18	1	36	6	2	2	4588	1	30432	1
19	2	11	8	1	1	1504	1	30432	1
20	2	21	11	3	2	4988	0	30432	1
21	2	19	1	1	3	3432	0	30432	1
22	1	15	17	2	2	5941	1	30432	1
23	2	14	9	1	1	1523	1	30432	1
24	2	13	2	1	1	2754	1	30432	1
25	1	30	3	2	2	1743	1	30432	1
26	2	33	4	1	2	2506	0	30432	1
27	1	29	8	1	1	5939	1	30432	1
28	2	10	6	1	1	3930	1	30432	1
29	2	16	5	3	1	6606	0	30432	1
30	1	3	5	2	2	1388	1	30432	1
31	1	9	15	1	1	2666	1	30432	1
32	2	4	13	1	2	3530	0	30432	1
33	1	1	1	1	1	3100	1	30432	1
34	1	18	13	1	1	2232	1	30432	1
35	1	2	11	2	2	1297	1	30432	1
36	1	28	12	2	2	805	1	30432	1
1	2	19	2	3	3	2876	1	30433	1
2	1	36	18	3	1	2419	0	30433	1
3	2	21	4	2	2	984	1	30433	1
4	2	3	10	1	1	1183	1	30433	1
5	1	1	14	1	1	1658	1	30433	1
6	1	16	6	2	2	1274	1	30433	1
7	1	20	5	3	3	1338	1	30433	1
8	1	17	9	2	2	1105	1	30433	1
9	1	24	3	3	3	1057	1	30433	1
10	2	8	3	2	2	1082	1	30433	1
11	1	12	8	1	3	1779	0	30433	1
12	2	5	5	2	2	2711	1	30433	1
13	2	32	1	2	3	2994	0	30433	1
14	2	23	15	2	2	1874	1	30433	1
15	2	30	16	1	1	2479	1	30433	1
16	1	29	7	1	1	1611	1	30433	1
17	1	13	13	1	1	1372	1	30433	1
18	1	4	2	1	1	1844	1	30433	1
19	1	27	10	3	3	2513	1	30433	1
20	2	2	9	1	1	1943	1	30433	1
21	2	34	7	1	1	1855	1	30433	1
22	2	31	11	3	3	1162	1	30433	1
23	1	14	16	1	1	1016	1	30433	1
24	2	26	8	1	1	1805	1	30433	1
25	2	35	17	2	1	2197	0	30433	1
26	1	6	4	1	1	2021	1	30433	1
27	2	10	13	3	3	2594	1	30433	1
28	2	18	6	1	1	1862	1	30433	1
29	1	33	17	3	2	2492	0	30433	1
30	1	7	12	3	3	1418	1	30433	1
31	1	9	15	1	1	1506	1	30433	1
32	2	15	14	2	2	1894	1	30433	1
33	1	22	1	3	3	2348	1	30433	1
34	2	28	12	2	2	1183	1	30433	1
35	1	11	11	3	3	1548	1	30433	1
36	2	25	18	3	3	1321	1	30433	1
1	1	28	16	3	3	1821	1	30466	1
2	1	11	7	3	3	1700	1	30466	1
3	2	16	6	1	1	1317	1	30466	1
4	2	7	1	3	3	1497	1	30466	1
5	2	5	16	1	1	1522	1	30466	1
6	1	35	12	3	3	1078	1	30466	1
7	1	8	17	2	2	1050	1	30466	1
8	2	23	4	2	2	1112	1	30466	1
9	2	2	13	2	2	1184	1	30466	1
10	1	31	3	1	1	1195	1	30466	1
11	1	33	4	3	3	1461	1	30466	1
12	1	30	6	1	1	1801	1	30466	1
13	1	22	1	3	3	1667	1	30466	1
14	2	3	15	2	2	2366	1	30466	1
15	2	1	10	3	3	1527	1	30466	1
16	1	26	14	2	2	1215	1	30466	1
17	1	10	9	2	2	4236	1	30466	1
18	2	25	5	2	2	1600	1	30466	1
19	1	14	8	3	3	1504	1	30466	1
20	2	17	3	3	3	1501	1	30466	1
21	2	13	17	3	3	3636	1	30466	1
22	2	19	8	1	1	2259	1	30466	1
23	1	36	10	3	3	2457	1	30466	1
24	2	18	11	3	3	1119	1	30466	1
25	1	32	2	3	3	1612	1	30466	1
26	1	20	5	2	2	1416	1	30466	1
27	1	21	15	1	1	1124	1	30466	1
28	1	29	11	3	3	947	1	30466	1
29	2	24	9	1	1	1444	1	30466	1
30	2	6	2	2	2	1623	1	30466	1
31	2	9	7	1	1	7767	1	30466	1
32	1	34	18	2	2	914	1	30466	1
33	2	4	18	1	1	1346	1	30466	1
34	2	15	14	2	2	1096	1	30466	1
35	2	27	12	3	3	1303	1	30466	1
36	1	12	13	3	3	2189	1	30466	1
1	2	12	5	1	1	1894	1	30469	1
2	1	19	10	1	1	1726	1	30469	1
3	1	20	3	2	2	1333	1	30469	1
4	1	6	17	2	2	1005	1	30469	1
5	1	11	18	2	2	971	1	30469	1
6	1	30	6	1	2	1858	0	30469	1
7	2	27	8	3	3	1441	1	30469	1
8	2	23	9	1	1	1559	1	30469	1
9	2	1	10	2	1	2082	0	30469	1
10	2	34	12	2	2	1330	1	30469	1
11	2	14	11	2	2	956	1	30469	1
12	1	22	1	3	3	1185	1	30469	1
13	1	32	2	2	2	853	1	30469	1
14	1	18	11	2	2	1519	1	30469	1
15	1	17	12	1	1	1154	1	30469	1
16	1	28	9	2	2	1816	1	30469	1
17	2	33	13	3	3	1593	1	30469	1
18	2	24	3	2	2	1102	1	30469	1
19	1	7	13	1	1	2431	1	30469	1
20	2	10	16	1	1	1632	1	30469	1
21	2	8	7	2	2	1208	1	30469	1
22	1	25	7	3	3	1373	1	30469	1
23	2	29	2	2	2	1023	1	30469	1
24	1	36	16	3	3	1088	1	30469	1
25	1	15	14	3	3	1485	1	30469	1
26	2	9	4	1	1	1408	1	30469	1
27	2	3	1	2	2	1618	1	30469	1
28	2	13	17	2	2	1900	1	30469	1
29	1	31	5	1	1	1488	1	30469	1
30	2	2	6	3	3	1919	1	30469	1
31	1	21	15	1	1	1512	1	30469	1
32	2	16	18	2	2	1547	1	30469	1
33	2	35	15	3	3	2482	1	30469	1
34	1	5	4	2	2	1381	1	30469	1
35	2	4	14	2	2	1656	1	30469	1
36	1	26	8	3	3	2068	1	30469	1
1	1	19	5	1	1	4129	1	30476	1
2	1	1	15	3	3	2757	1	30476	1
3	2	27	17	2	2	2899	1	30476	1
4	1	9	16	1	1	2146	1	30476	1
5	1	25	13	3	3	2722	1	30476	1
6	2	33	6	3	3	4297	1	30476	1
7	1	3	2	2	2	1213	1	30476	1
8	2	17	15	2	2	1314	1	30476	1
9	1	32	7	3	3	4577	1	30476	1
10	1	31	17	3	3	7159	1	30476	1
11	2	20	8	3	3	3870	1	30476	1
12	1	30	4	3	3	2205	1	30476	1
13	2	15	18	1	1	1158	1	30476	1
14	1	10	10	1	1	1328	1	30476	1
15	2	8	3	2	2	1477	1	30476	1
16	2	23	7	2	2	1064	1	30476	1
17	2	36	1	3	3	3862	1	30476	1
18	2	11	14	2	2	3232	1	30476	1
19	1	13	14	1	1	1140	1	30476	1
20	2	18	11	2	2	1810	1	30476	1
21	2	26	12	2	2	825	1	30476	1
22	2	34	16	2	2	2694	1	30476	1
23	2	28	9	1	1	1584	1	30476	1
24	2	29	4	3	3	2014	1	30476	1
25	2	22	2	1	1	1275	1	30476	1
26	1	14	12	3	3	1409	1	30476	1
27	2	16	13	1	1	2494	1	30476	1
28	2	6	10	3	3	3589	1	30476	1
29	1	35	11	2	2	933	1	30476	1
30	1	12	8	3	3	4924	1	30476	1
31	1	4	9	3	2	5045	0	30476	1
32	1	5	1	1	1	2884	1	30476	1
33	1	24	3	2	2	725	1	30476	1
34	1	7	18	1	1	1098	1	30476	1
35	2	21	5	2	2	878	1	30476	1
36	1	2	6	1	1	2273	1	30476	1
1	1	28	16	3	3	2943	1	30478	1
2	2	32	5	2	2	1130	1	30478	1
3	2	26	12	2	2	1383	1	30478	1
4	2	5	13	2	2	3128	1	30478	1
5	1	13	2	3	3	1663	1	30478	1
6	2	14	18	2	2	1087	1	30478	1
7	1	12	13	2	2	1342	1	30478	1
8	2	22	16	3	3	1808	1	30478	1
9	1	34	5	2	2	769	1	30478	1
10	2	1	3	3	3	2092	1	30478	1
11	1	36	6	2	2	2465	1	30478	1
12	2	19	7	3	3	1240	1	30478	1
13	2	24	11	3	3	1418	1	30478	1
14	2	31	17	1	1	1602	1	30478	1
15	1	10	9	3	3	2514	1	30478	1
16	2	29	2	3	3	1535	1	30478	1
17	2	6	8	3	3	744	1	30478	1
18	1	35	15	2	2	2098	1	30478	1
19	1	8	3	2	2	842	1	30478	1
20	1	33	1	1	1	1673	1	30478	1
21	2	20	4	1	1	769	1	30478	1
22	1	27	4	3	3	1510	1	30478	1
23	1	15	10	1	1	1433	1	30478	1
24	1	30	18	1	1	1443	1	30478	1
25	1	7	14	2	2	944	1	30478	1
26	1	23	8	3	3	1101	1	30478	1
27	2	9	1	2	2	2048	1	30478	1
28	2	17	14	3	3	1395	1	30478	1
29	2	16	15	1	1	1585	1	30478	1
30	2	18	9	1	1	2851	1	30478	1
31	1	4	17	3	3	3127	1	30478	1
32	1	2	12	3	3	1143	1	30478	1
33	1	25	11	2	2	1623	1	30478	1
34	2	3	6	3	3	1432	1	30478	1
35	2	11	10	3	3	1906	1	30478	1
36	1	21	7	2	2	1330	1	30478	1
1	1	32	16	1	1	1018	1	30568	1
2	2	27	5	1	1	1905	1	30568	1
3	1	29	13	3	3	2657	1	30568	1
4	1	26	7	1	1	1378	1	30568	1
5	1	5	4	2	2	2165	1	30568	1
6	2	4	10	3	3	1302	1	30568	1
7	1	30	1	3	3	2619	1	30568	1
8	1	6	15	3	3	5904	1	30568	1
9	1	33	8	3	2	3362	0	30568	1
10	2	9	13	1	1	1287	1	30568	1
11	1	23	12	3	3	1179	1	30568	1
12	1	14	17	1	1	1249	1	30568	1
13	2	12	11	3	3	1402	1	30568	1
14	2	11	18	1	1	2572	1	30568	1
15	2	1	1	2	2	2460	1	30568	1
16	2	36	8	2	2	2543	1	30568	1
17	1	16	6	2	2	1558	1	30568	1
18	1	19	10	2	2	1692	1	30568	1
19	2	8	15	2	2	1486	1	30568	1
20	1	18	3	2	2	1563	1	30568	1
21	2	10	3	2	2	1328	1	30568	1
22	1	24	11	3	3	1453	1	30568	1
23	2	17	4	1	1	2354	1	30568	1
24	2	7	2	2	2	1455	1	30568	1
25	1	28	2	2	2	1418	1	30568	1
26	2	3	17	3	3	1401	1	30568	1
27	2	34	16	3	3	2189	1	30568	1
28	2	15	7	2	2	1491	1	30568	1
29	2	20	12	2	2	1452	1	30568	1
30	2	13	14	1	1	1799	1	30568	1
31	1	21	9	1	1	1418	1	30568	1
32	1	35	18	1	1	1293	1	30568	1
33	1	25	14	1	1	1484	1	30568	1
34	2	2	9	2	2	1210	1	30568	1
35	2	31	6	3	3	1365	1	30568	1
36	1	22	5	1	1	1366	1	30568	1
1	1	22	13	3	3	3363	1	30581	1
2	2	15	9	3	3	1790	1	30581	1
3	1	19	14	1	1	1977	1	30581	1
4	2	36	7	1	1	1606	1	30581	1
5	1	3	2	3	3	1232	1	30581	1
6	2	9	4	1	3	3423	0	30581	1
7	2	7	17	3	3	2518	1	30581	1
8	1	10	8	2	2	1992	1	30581	1
9	1	8	7	3	3	917	1	30581	1
10	1	34	9	3	3	1569	1	30581	1
11	2	29	13	1	1	2429	1	30581	1
12	2	18	2	3	3	1185	1	30581	1
13	2	17	6	1	1	1781	1	30581	1
14	2	24	11	2	2	1086	1	30581	1
15	1	27	5	1	1	1126	1	30581	1
16	1	28	15	3	3	2308	1	30581	1
17	2	32	1	1	2	2062	0	30581	1
18	1	26	6	2	2	2135	1	30581	1
19	2	20	12	3	3	3532	1	30581	1
20	1	16	12	3	3	1429	1	30581	1
21	2	30	14	3	3	2567	1	30581	1
22	1	33	18	2	2	982	1	30581	1
23	1	31	10	1	1	3529	1	30581	1
24	2	2	15	2	2	2012	1	30581	1
25	2	13	5	1	1	2043	1	30581	1
26	1	1	16	3	3	1086	1	30581	1
27	2	4	10	2	2	2569	1	30581	1
28	1	21	17	3	3	2341	1	30581	1
29	2	12	16	1	1	1817	1	30581	1
30	1	11	4	1	1	2869	1	30581	1
31	2	14	3	1	1	4006	1	30581	1
32	1	5	3	1	1	1727	1	30581	1
33	1	25	11	2	2	1007	1	30581	1
34	2	6	18	2	2	1183	1	30581	1
35	2	23	8	1	1	994	1	30581	1
36	1	35	1	3	3	1429	1	30581	1
1	1	28	15	1	1	1666	1	30584	1
2	1	21	3	3	3	1243	1	30584	1
3	1	33	10	1	1	1838	1	30584	1
4	2	11	10	3	3	1435	1	30584	1
5	1	19	8	1	1	1797	1	30584	1
6	1	18	2	1	1	916	1	30584	1
7	1	4	16	1	1	1421	1	30584	1
8	1	5	14	2	2	1268	1	30584	1
9	1	2	12	3	3	2349	1	30584	1
10	1	34	11	1	1	1192	1	30584	1
11	2	12	8	2	2	1116	1	30584	1
12	1	3	5	1	1	2452	1	30584	1
13	2	26	3	3	3	3265	1	30584	1
14	2	31	2	3	3	1922	1	30584	1
15	2	24	11	3	3	2019	1	30584	1
16	2	27	17	2	2	3053	1	30584	1
17	2	16	18	2	3	2188	0	30584	1
18	1	10	1	2	2	6777	1	30584	1
19	2	30	7	2	2	4553	1	30584	1
20	2	23	13	1	1	1781	1	30584	1
21	2	1	4	1	1	7347	1	30584	1
22	1	20	9	1	1	4746	1	30584	1
23	1	13	17	2	2	9757	1	30584	1
24	1	32	7	3	3	913	1	30584	1
25	2	25	14	2	2	1081	1	30584	1
26	1	29	6	1	3	4658	0	30584	1
27	1	22	18	2	2	864	1	30584	1
28	1	7	4	1	1	4528	1	30584	1
29	2	35	1	3	3	5467	1	30584	1
30	2	14	6	2	2	3862	1	30584	1
31	2	6	16	1	1	13255	1	30584	1
32	2	15	5	1	1	9412	1	30584	1
33	2	17	9	2	2	4709	1	30584	1
34	2	36	12	3	3	5052	1	30584	1
35	2	9	15	2	2	10679	1	30584	1
36	1	8	13	2	2	2374	1	30584	1
1	1	3	18	1	1	2872	1	30588	1
2	1	21	7	2	2	2032	1	30588	1
3	2	10	15	1	1	1718	1	30588	1
4	1	16	9	2	2	1926	1	30588	1
5	2	1	16	3	3	4318	1	30588	1
6	1	22	16	2	2	2780	1	30588	1
7	2	30	8	1	1	1867	1	30588	1
8	1	32	14	1	1	2994	1	30588	1
9	2	13	2	3	3	1500	1	30588	1
10	2	17	12	2	2	1987	1	30588	1
11	1	11	13	1	1	3475	1	30588	1
12	1	36	2	3	2	2846	0	30588	1
13	1	5	8	3	2	3210	0	30588	1
14	1	28	6	2	3	3373	0	30588	1
15	2	8	3	2	2	2038	1	30588	1
16	1	2	5	3	3	1668	1	30588	1
17	2	35	9	3	2	2916	0	30588	1
18	2	26	7	3	3	2899	1	30588	1
19	1	34	12	3	3	1882	1	30588	1
20	1	19	3	1	1	2509	1	30588	1
21	1	29	17	1	1	1915	1	30588	1
22	2	4	18	3	3	2422	1	30588	1
23	1	18	15	2	2	962	1	30588	1
24	2	27	11	3	3	2354	1	30588	1
25	2	24	10	2	2	2045	1	30588	1
26	1	6	10	3	3	1460	1	30588	1
27	2	31	17	1	1	2753	1	30588	1
28	2	14	1	2	2	4096	1	30588	1
29	1	9	4	1	1	1713	1	30588	1
30	2	23	13	3	3	1864	1	30588	1
31	1	33	11	1	1	1664	1	30588	1
32	2	7	6	1	1	1646	1	30588	1
33	2	15	14	1	1	1232	1	30588	1
34	2	20	4	2	2	1909	1	30588	1
35	2	25	5	1	1	1936	1	30588	1
36	1	12	1	2	2	2484	1	30588	1
1	2	5	12	2	2	4089	1	40160	1
2	1	26	9	1	1	1773	1	40160	1
3	2	23	10	1	2	1898	0	40160	1
4	2	3	13	1	1	2186	1	40160	1
5	2	21	17	2	1	1963	0	40160	1
6	1	30	13	3	3	2304	1	40160	1
7	1	2	14	1	1	1437	1	40160	1
8	1	11	6	2	2	1276	1	40160	1
9	2	1	14	3	3	1777	1	40160	1
10	2	33	18	1	1	1909	1	40160	1
11	1	14	8	1	1	1161	1	40160	1
12	1	4	12	2	2	683	1	40160	1
13	1	24	5	3	3	1220	1	40160	1
14	1	35	2	1	1	1184	1	40160	1
15	1	9	17	3	3	1086	1	40160	1
16	2	13	16	3	2	2122	0	40160	1
17	2	29	8	3	3	1965	1	40160	1
18	1	15	3	1	2	1759	0	40160	1
19	1	17	1	3	3	1906	1	40160	1
20	2	31	5	1	1	1187	1	40160	1
21	2	18	7	2	2	1696	1	40160	1
22	2	27	1	3	3	1987	1	40160	1
23	2	36	9	3	3	1616	1	40160	1
24	2	32	15	2	2	1498	1	40160	1
25	1	34	18	2	2	884	1	40160	1
26	1	6	11	3	3	1193	1	40160	1
27	2	12	3	2	2	2015	1	40160	1
28	2	19	11	3	3	1250	1	40160	1
29	1	20	7	1	1	1459	1	40160	1
30	2	7	2	3	1	1621	0	40160	1
31	1	22	10	1	1	1375	1	40160	1
32	2	28	4	3	3	1543	1	40160	1
33	2	8	6	3	3	1217	1	40160	1
34	1	25	16	3	3	1130	1	40160	1
35	1	16	4	3	1	1177	0	40160	1
36	1	10	15	2	2	1526	1	40160	1
1	1	31	8	2	2	2003	1	40170	1
2	2	15	17	3	3	2475	1	40170	1
3	1	29	1	3	3	1860	1	40170	1
4	1	6	4	1	1	2077	1	40170	1
5	2	22	13	3	3	2173	1	40170	1
6	2	11	16	3	3	2537	1	40170	1
7	2	4	11	2	2	1192	1	40170	1
8	2	21	3	1	1	1659	1	40170	1
9	1	23	14	1	1	1693	1	40170	1
10	2	33	5	2	2	1619	1	40170	1
11	1	7	13	1	2	2551	0	40170	1
12	2	14	14	2	3	3989	0	40170	1
13	2	16	15	1	1	2407	1	40170	1
14	1	26	3	3	3	2186	1	40170	1
15	1	9	11	2	2	1185	1	40170	1
16	2	36	1	2	2	2773	1	40170	1
17	2	12	7	3	3	3625	1	40170	1
18	2	30	8	3	3	2025	1	40170	1
19	2	25	10	2	2	2729	1	40170	1
20	1	2	18	3	3	2445	1	40170	1
21	2	13	12	2	2	2602	1	40170	1
22	1	3	10	1	1	2196	1	40170	1
23	1	32	2	2	2	1468	1	40170	1
24	2	35	4	1	1	2956	1	40170	1
25	2	24	6	3	3	1540	1	40170	1
26	1	18	5	1	1	1408	1	40170	1
27	1	8	6	1	1	1976	1	40170	1
28	1	17	16	1	1	1311	1	40170	1
29	1	1	9	1	1	2178	1	40170	1
30	1	19	17	3	3	2554	1	40170	1
31	2	20	18	2	2	1333	1	40170	1
32	2	27	2	2	2	2220	1	40170	1
33	1	28	15	3	3	2978	1	40170	1
34	1	10	7	1	1	1428	1	40170	1
35	1	34	12	1	1	1382	1	40170	1
36	2	5	9	2	2	4122	1	40170	1
1	1	5	14	2	2	3633	1	40288	1
2	1	36	10	3	3	1973	1	40288	1
3	2	22	13	3	3	1988	1	40288	1
4	1	20	18	1	1	1782	1	40288	1
5	2	2	10	3	3	1762	1	40288	1
6	2	18	15	1	1	1758	1	40288	1
7	2	9	9	3	3	2029	1	40288	1
8	2	25	14	1	1	1796	1	40288	1
9	1	16	9	3	3	1552	1	40288	1
10	1	34	15	3	3	1726	1	40288	1
11	2	17	4	3	3	1956	1	40288	1
12	2	15	16	2	2	2303	1	40288	1
13	1	6	16	2	2	1339	1	40288	1
14	2	14	17	1	3	2029	0	40288	1
15	1	33	1	3	3	1805	1	40288	1
16	1	27	12	3	3	1924	1	40288	1
17	1	4	6	1	1	1977	1	40288	1
18	2	24	2	3	3	1921	1	40288	1
19	2	7	3	1	1	1834	1	40288	1
20	1	10	11	2	2	1572	1	40288	1
21	1	8	7	3	3	1833	1	40288	1
22	2	23	6	3	3	1537	1	40288	1
23	2	12	5	1	1	1783	1	40288	1
24	2	30	7	1	2	1103	0	40288	1
25	1	11	17	1	3	2225	0	40288	1
26	2	19	18	3	3	1541	1	40288	1
27	1	1	4	2	2	1886	1	40288	1
28	1	29	13	2	2	1860	1	40288	1
29	2	21	1	3	3	1886	1	40288	1
30	2	3	12	3	3	2249	1	40288	1
31	1	13	5	1	2	2442	0	40288	1
32	1	32	3	1	2	1886	0	40288	1
33	2	26	8	1	1	1457	1	40288	1
34	1	31	8	2	2	1732	1	40288	1
35	2	35	11	2	2	2029	1	40288	1
36	1	28	2	2	2	1878	1	40288	1
1	2	34	2	2	2	3381	1	40351	1
2	1	27	11	2	2	3229	1	40351	1
3	1	6	9	1	3	3782	0	40351	1
4	1	13	7	1	1	3961	1	40351	1
5	2	20	8	3	3	2093	1	40351	1
6	1	5	14	1	1	2847	1	40351	1
7	1	33	3	2	2	2905	1	40351	1
8	2	21	12	1	1	2366	1	40351	1
9	2	1	14	3	3	1934	1	40351	1
10	1	7	13	1	2	4279	0	40351	1
11	1	26	4	1	1	4013	1	40351	1
12	1	10	15	3	3	5652	1	40351	1
13	1	36	18	3	3	1509	1	40351	1
14	2	29	17	3	3	3140	1	40351	1
15	2	8	18	1	1	2563	1	40351	1
16	1	11	2	1	1	3804	1	40351	1
17	1	30	6	1	1	3470	1	40351	1
18	2	24	10	1	1	2326	1	40351	1
19	1	17	8	1	2	5122	0	40351	1
20	1	12	17	2	3	4480	0	40351	1
21	2	14	6	1	1	3538	1	40351	1
22	2	31	11	1	1	1531	1	40351	1
23	2	2	5	2	2	1360	1	40351	1
24	2	9	15	1	1	3978	1	40351	1
25	1	19	10	2	2	1411	1	40351	1
26	1	28	1	1	2	5085	0	40351	1
27	1	32	16	3	3	1998	1	40351	1
28	2	22	4	2	2	3086	1	40351	1
29	2	25	16	2	2	3735	1	40351	1
30	2	18	7	1	1	5029	1	40351	1
31	1	35	12	2	2	1666	1	40351	1
32	1	23	5	2	2	1243	1	40351	1
33	2	16	9	2	2	2199	1	40351	1
34	2	4	13	2	2	2254	1	40351	1
35	2	3	3	2	2	2635	1	40351	1
36	2	15	1	3	3	3900	1	40351	1
1	2	28	1	2	2	3593	1	40490	1
2	2	18	17	1	2	3907	0	40490	1
3	2	15	3	1	1	1914	1	40490	1
4	2	4	7	2	2	2625	1	40490	1
5	1	20	18	1	1	1989	1	40490	1
6	1	2	4	3	3	2089	1	40490	1
7	1	19	8	2	2	1039	1	40490	1
8	2	22	6	1	1	2409	1	40490	1
9	1	27	7	2	2	1443	1	40490	1
10	2	1	5	1	1	1187	1	40490	1
11	1	30	2	1	1	2189	1	40490	1
12	1	31	14	3	3	1883	1	40490	1
13	1	5	15	2	2	1152	1	40490	1
14	1	32	12	2	2	1065	1	40490	1
15	2	33	18	3	3	1998	1	40490	1
16	2	3	15	1	2	1763	0	40490	1
17	1	11	10	2	2	1626	1	40490	1
18	1	36	9	3	3	1683	1	40490	1
19	2	17	16	2	2	3373	1	40490	1
20	1	7	6	2	2	1742	1	40490	1
21	1	35	1	2	2	2101	1	40490	1
22	1	12	16	2	2	1386	1	40490	1
23	2	8	12	3	2	2486	0	40490	1
24	1	25	3	2	2	1701	1	40490	1
25	2	23	9	1	1	2595	1	40490	1
26	1	24	13	2	2	1284	1	40490	1
27	2	34	14	2	3	2826	0	40490	1
28	2	21	10	1	1	1568	1	40490	1
29	2	13	11	3	3	1748	1	40490	1
30	1	16	11	3	2	3167	0	40490	1
31	2	6	2	1	1	1891	1	40490	1
32	1	29	17	2	2	1448	1	40490	1
33	2	14	13	1	1	2422	1	40490	1
34	1	26	5	1	2	2059	0	40490	1
35	2	9	8	1	3	2636	0	40490	1
36	2	10	4	3	3	1499	1	40490	1
1	2	36	7	3	2	4549	0	40496	1
2	2	21	12	2	2	1432	1	40496	1
3	1	30	18	3	3	1895	1	40496	1
4	1	14	9	3	3	2161	1	40496	1
5	2	28	17	3	2	2584	0	40496	1
6	1	4	17	3	3	1604	1	40496	1
7	1	27	11	1	3	2478	0	40496	1
8	1	29	15	2	2	1018	1	40496	1
9	2	35	13	2	2	2172	1	40496	1
10	1	23	4	3	3	2154	1	40496	1
11	2	7	5	1	1	1865	1	40496	1
12	2	5	4	3	3	1409	1	40496	1
13	1	3	14	1	1	2126	1	40496	1
14	2	31	16	1	1	1928	1	40496	1
15	2	25	18	3	3	1518	1	40496	1
16	1	11	5	3	3	1644	1	40496	1
17	2	19	9	3	3	2337	1	40496	1
18	2	18	8	1	1	1902	1	40496	1
19	2	9	1	3	1	1962	0	40496	1
20	1	8	16	1	1	1124	1	40496	1
21	2	16	3	2	2	2166	1	40496	1
22	1	34	2	2	2	1049	1	40496	1
23	2	15	6	3	3	2270	1	40496	1
24	2	1	15	2	2	2826	1	40496	1
25	2	2	14	3	3	2228	1	40496	1
26	1	13	10	2	2	931	1	40496	1
27	1	24	12	2	2	853	1	40496	1
28	1	26	3	1	1	1524	1	40496	1
29	2	33	11	1	1	1479	1	40496	1
30	1	6	6	2	2	1440	1	40496	1
31	1	10	8	2	2	1010	1	40496	1
32	1	20	1	1	2	1087	0	40496	1
33	1	12	13	3	3	1654	1	40496	1
34	1	17	7	3	3	2844	1	40496	1
35	2	32	2	3	3	2578	1	40496	1
36	2	22	10	1	1	1645	1	40496	1
1	1	11	14	2	2	4108	1	40500	1
2	2	3	18	1	1	3065	1	40500	1
3	2	14	13	3	1	2343	0	40500	1
4	2	36	10	2	2	1467	1	40500	1
5	2	29	4	2	1	1686	0	40500	1
6	2	26	12	2	1	1389	0	40500	1
7	1	8	16	2	2	1024	1	40500	1
8	2	21	17	2	1	1184	0	40500	1
9	1	28	18	1	2	1006	0	40500	1
10	1	9	10	2	3	2379	0	40500	1
11	1	20	3	1	1	1477	1	40500	1
12	1	17	4	1	2	1563	0	40500	1
13	1	31	12	1	1	912	1	40500	1
14	2	22	16	1	2	1353	0	40500	1
15	1	19	13	2	1	1208	0	40500	1
16	2	5	15	2	3	1143	0	40500	1
17	2	1	5	1	1	1083	1	40500	1
18	1	24	9	1	1	1712	1	40500	1
19	1	30	11	3	3	1253	1	40500	1
20	2	27	8	1	2	1175	0	40500	1
21	1	34	5	2	1	1467	0	40500	1
22	1	13	15	1	2	924	0	40500	1
23	2	33	1	1	1	770	1	40500	1
24	1	23	1	2	2	734	1	40500	1
25	1	6	17	1	1	1179	1	40500	1
26	2	2	14	2	1	1047	0	40500	1
27	1	10	2	3	1	1013	0	40500	1
28	2	35	2	3	1	773	0	40500	1
29	2	18	11	3	1	1032	0	40500	1
30	2	4	7	3	1	787	0	40500	1
31	2	16	6	2	1	977	0	40500	1
32	2	25	9	2	3	602	0	40500	1
33	1	15	6	1	1	613	1	40500	1
34	1	7	8	1	2	618	0	40500	1
35	2	32	3	3	3	2386	1	40500	1
36	1	12	7	2	1	1273	0	40500	1
1	2	27	13	1	1	5111	1	40512	1
2	2	29	11	3	3	2716	1	40512	1
3	2	4	3	1	1	2283	1	40512	1
4	1	28	15	1	1	1452	1	40512	1
5	2	33	1	3	3	2214	1	40512	1
6	1	22	10	3	3	1200	1	40512	1
7	2	13	9	1	1	2644	1	40512	1
8	1	8	14	2	2	1507	1	40512	1
9	1	12	8	1	1	2868	1	40512	1
10	2	36	15	1	3	1948	0	40512	1
11	2	17	5	2	2	2470	1	40512	1
12	1	5	7	3	3	1623	1	40512	1
13	1	9	18	1	1	914	1	40512	1
14	1	2	9	1	1	1692	1	40512	1
15	2	35	10	2	2	2574	1	40512	1
16	1	19	11	2	2	2121	1	40512	1
17	1	16	1	3	3	2180	1	40512	1
18	2	10	14	3	2	2197	0	40512	1
19	1	24	5	2	2	1251	1	40512	1
20	1	30	4	2	2	1593	1	40512	1
21	1	6	13	2	3	2785	0	40512	1
22	1	23	3	2	2	2374	1	40512	1
23	2	11	4	1	1	3274	1	40512	1
24	2	18	2	2	2	2005	1	40512	1
25	2	31	17	3	3	1978	1	40512	1
26	2	20	6	2	2	1115	1	40512	1
27	2	14	8	2	2	1675	1	40512	1
28	1	7	16	3	3	2290	1	40512	1
29	2	25	16	2	2	2250	1	40512	1
30	2	15	18	3	3	1607	1	40512	1
31	1	21	2	1	1	1333	1	40512	1
32	1	32	12	2	2	996	1	40512	1
33	2	26	7	2	2	2590	1	40512	1
34	2	1	12	2	2	1189	1	40512	1
35	1	3	17	1	1	1599	1	40512	1
36	1	34	6	1	1	2256	1	40512	1
1	1	27	5	3	3	3163	1	40515	1
2	1	6	2	1	1	4570	1	40515	1
3	1	32	11	1	2	7078	0	40515	1
4	2	20	16	1	1	3257	1	40515	1
5	2	31	9	2	2	5609	1	40515	1
6	2	7	4	2	2	1799	1	40515	1
7	2	1	14	2	2	4515	1	40515	1
8	1	2	17	3	3	5396	1	40515	1
9	1	26	1	1	1	3626	1	40515	1
10	2	18	13	3	2	6726	0	40515	1
11	1	13	13	2	1	5319	0	40515	1
12	1	22	8	1	1	4220	1	40515	1
13	1	10	16	3	3	3849	1	40515	1
14	2	30	11	1	1	4200	1	40515	1
15	1	14	7	3	3	3585	1	40515	1
16	1	29	4	1	1	3877	1	40515	1
17	2	28	5	1	1	2703	1	40515	1
18	1	4	6	3	3	3401	1	40515	1
19	2	25	1	3	3	3184	1	40515	1
20	2	19	12	1	1	5655	1	40515	1
21	1	24	12	1	1	1580	1	40515	1
22	2	3	6	3	3	3218	1	40515	1
23	2	33	17	3	3	4711	1	40515	1
24	1	21	3	2	2	3450	1	40515	1
25	2	35	15	2	3	8431	0	40515	1
26	1	36	18	1	1	3521	1	40515	1
27	2	5	10	1	1	2228	1	40515	1
28	2	23	3	2	2	2752	1	40515	1
29	1	11	14	2	1	7362	0	40515	1
30	1	12	15	2	3	4144	0	40515	1
31	2	9	18	1	1	3919	1	40515	1
32	2	34	2	1	1	2152	1	40515	1
33	2	15	8	3	3	3784	1	40515	1
34	1	8	9	2	2	3616	1	40515	1
35	1	16	10	3	3	1403	1	40515	1
36	2	17	7	3	3	6478	1	40515	1
1	2	34	13	1	1	4455	1	40516	1
2	2	25	10	3	1	2930	0	40516	1
3	2	3	11	3	3	3417	1	40516	1
4	1	27	11	1	2	2880	0	40516	1
5	2	29	7	2	3	2991	0	40516	1
6	2	33	16	1	3	3058	0	40516	1
7	1	15	13	2	3	4087	0	40516	1
8	2	20	14	3	1	2902	0	40516	1
9	1	1	15	1	3	2704	0	40516	1
10	1	19	18	3	1	2308	0	40516	1
11	2	6	4	2	3	2445	0	40516	1
12	1	36	8	3	1	2930	0	40516	1
13	2	22	12	3	1	1993	0	40516	1
14	1	23	3	2	3	2550	0	40516	1
15	2	26	17	3	2	2273	0	40516	1
16	1	18	1	1	1	3093	1	40516	1
17	1	5	4	1	2	2460	0	40516	1
18	2	7	3	2	2	1579	1	40516	1
19	1	17	17	1	2	2402	0	40516	1
20	1	31	5	2	2	1215	1	40516	1
21	2	12	15	1	1	2097	1	40516	1
22	1	14	16	2	2	1298	1	40516	1
23	1	9	14	3	1	2483	0	40516	1
24	1	10	2	2	2	1743	1	40516	1
25	1	21	7	1	2	3059	0	40516	1
26	2	28	6	2	1	1963	0	40516	1
27	1	4	10	3	3	6223	1	40516	1
28	2	2	9	1	1	2312	1	40516	1
29	2	11	2	2	1	2082	0	40516	1
30	1	35	12	2	1	2064	0	40516	1
31	2	16	18	1	2	2376	0	40516	1
32	1	24	6	1	1	2272	1	40516	1
33	2	32	5	2	1	2320	0	40516	1
34	1	8	9	3	3	2293	1	40516	1
35	2	30	8	3	2	1944	0	40516	1
36	2	13	1	2	1	1631	0	40516	1
1	2	36	12	2	2	3415	1	40519	1
2	2	18	10	2	2	3100	1	40519	1
3	2	21	17	3	3	2307	1	40519	1
4	2	14	8	2	2	1665	1	40519	1
5	1	19	13	2	2	1615	1	40519	1
6	1	30	5	1	1	1928	1	40519	1
7	1	2	14	2	2	1729	1	40519	1
8	1	9	12	3	3	1325	1	40519	1
9	2	3	11	3	3	1643	1	40519	1
10	1	5	11	3	3	1530	1	40519	1
11	2	7	1	3	3	2806	1	40519	1
12	1	29	15	1	1	1787	1	40519	1
13	2	24	7	1	1	3190	1	40519	1
14	1	8	6	2	2	2184	1	40519	1
15	1	34	17	2	2	1180	1	40519	1
16	2	4	9	1	1	2393	1	40519	1
17	1	33	18	1	1	1627	1	40519	1
18	1	27	8	1	1	1508	1	40519	1
19	1	28	10	3	3	2385	1	40519	1
20	1	1	4	3	3	1221	1	40519	1
21	2	32	14	2	2	2363	1	40519	1
22	2	23	16	3	3	1859	1	40519	1
23	2	11	3	1	1	1334	1	40519	1
24	2	31	2	1	1	3719	1	40519	1
25	1	25	1	2	2	3078	1	40519	1
26	2	15	15	3	3	3057	1	40519	1
27	2	13	18	2	2	4417	1	40519	1
28	1	6	3	2	2	1560	1	40519	1
29	2	20	13	1	1	3845	1	40519	1
30	2	35	4	3	3	1196	1	40519	1
31	2	12	5	3	3	3261	1	40519	1
32	2	16	6	2	2	1484	1	40519	1
33	1	26	9	1	1	1388	1	40519	1
34	1	17	2	2	2	1341	1	40519	1
35	1	10	7	3	3	1638	1	40519	1
36	1	22	16	3	3	1572	1	40519	1
1	1	27	16	3	2	3858	0	40520	1
2	1	17	5	1	1	1410	1	40520	1
3	1	30	7	2	2	3694	1	40520	1
4	2	32	15	1	1	4571	1	40520	1
5	1	18	17	3	3	2186	1	40520	1
6	1	31	14	2	2	2773	1	40520	1
7	2	36	5	1	1	1738	1	40520	1
8	2	22	12	2	2	1694	1	40520	1
9	2	26	2	1	1	3056	1	40520	1
10	2	11	7	3	3	3825	1	40520	1
11	1	21	11	2	2	2841	1	40520	1
12	1	35	8	2	2	2712	1	40520	1
13	2	28	13	1	1	1642	1	40520	1
14	1	15	9	2	2	4606	1	40520	1
15	2	5	14	3	2	6013	0	40520	1
16	2	33	10	2	2	2631	1	40520	1
17	1	29	13	1	1	2040	1	40520	1
18	2	6	6	3	3	2746	1	40520	1
19	1	24	2	1	1	3532	1	40520	1
20	1	10	10	1	1	1784	1	40520	1
21	1	34	3	1	1	3724	1	40520	1
22	1	20	18	1	1	1533	1	40520	1
23	2	19	8	1	1	2364	1	40520	1
24	2	23	18	3	3	2593	1	40520	1
25	2	7	17	2	2	4932	1	40520	1
26	2	25	16	2	2	5071	1	40520	1
27	2	4	3	3	3	4196	1	40520	1
28	2	3	4	2	2	1970	1	40520	1
29	1	12	1	2	2	2545	1	40520	1
30	1	14	4	1	1	3421	1	40520	1
31	1	13	15	1	1	1508	1	40520	1
32	1	8	12	1	1	1406	1	40520	1
33	1	16	6	1	1	3418	1	40520	1
34	2	9	1	2	3	6570	0	40520	1
35	2	2	11	1	1	1869	1	40520	1
36	2	1	9	3	1	2514	0	40520	1
1	2	2	16	1	1	1863	1	40522	1
2	1	3	9	1	1	2289	1	40522	1
3	2	23	15	1	1	1979	1	40522	1
4	2	8	17	1	1	2453	1	40522	1
5	2	15	10	1	1	1662	1	40522	1
6	2	13	18	3	3	2061	1	40522	1
7	2	17	11	3	3	1320	1	40522	1
8	1	7	14	1	1	1796	1	40522	1
9	1	12	13	1	1	1594	1	40522	1
10	2	9	13	2	2	1591	1	40522	1
11	2	6	9	1	1	1333	1	40522	1
12	1	10	11	2	2	1492	1	40522	1
13	2	14	14	2	2	1751	1	40522	1
14	1	21	2	3	3	940	1	40522	1
15	1	5	15	3	3	1356	1	40522	1
16	1	29	18	2	2	1065	1	40522	1
17	1	24	17	2	2	2648	1	40522	1
18	2	30	5	3	3	1277	1	40522	1
19	1	27	7	1	1	1664	1	40522	1
20	1	28	10	3	3	1400	1	40522	1
21	1	18	8	1	1	1506	1	40522	1
22	2	32	7	3	3	1414	1	40522	1
23	2	25	2	2	2	1645	1	40522	1
24	1	33	6	2	2	1467	1	40522	1
25	2	16	4	1	1	938	1	40522	1
26	2	34	8	3	3	1557	1	40522	1
27	1	36	12	3	3	1214	1	40522	1
28	1	4	1	1	1	1445	1	40522	1
29	1	22	4	2	2	1343	1	40522	1
30	1	31	5	3	3	995	1	40522	1
31	2	26	3	1	1	1066	1	40522	1
32	1	35	3	3	3	1244	1	40522	1
33	2	1	1	1	1	1454	1	40522	1
34	2	11	6	3	3	961	1	40522	1
35	2	19	12	2	2	1092	1	40522	1
36	1	20	16	2	2	1343	1	40522	1
1	1	4	7	2	2	3518	1	40524	1
2	1	21	11	3	3	5591	1	40524	1
3	1	29	14	1	1	4908	1	40524	1
4	2	35	13	1	1	1808	1	40524	1
5	1	20	6	1	1	3831	1	40524	1
6	2	12	16	3	1	3424	0	40524	1
7	2	19	14	1	1	2735	1	40524	1
8	2	34	5	2	2	6566	1	40524	1
9	2	17	2	2	2	2095	1	40524	1
10	2	25	7	1	1	3215	1	40524	1
11	1	16	2	3	1	3400	0	40524	1
12	2	6	3	3	3	3530	1	40524	1
13	2	10	9	1	1	4357	1	40524	1
14	2	1	11	3	3	5902	1	40524	1
15	1	36	3	2	2	12752	1	40524	1
16	2	15	15	2	2	2669	1	40524	1
17	1	32	8	1	1	2549	1	40524	1
18	2	27	18	2	2	2652	1	40524	1
19	2	33	6	1	1	1945	1	40524	1
20	1	14	13	1	3	2341	0	40524	1
21	1	28	1	3	3	3257	1	40524	1
22	2	30	10	3	1	2428	0	40524	1
23	2	2	12	3	3	3796	1	40524	1
24	2	23	4	3	3	2972	1	40524	1
25	1	22	4	3	3	4212	1	40524	1
26	2	3	1	3	3	7808	1	40524	1
27	1	11	18	2	2	2702	1	40524	1
28	1	24	5	2	2	2293	1	40524	1
29	1	31	15	2	2	5406	1	40524	1
30	1	9	16	3	3	2108	1	40524	1
31	2	8	17	2	2	3883	1	40524	1
32	1	5	17	3	3	3892	1	40524	1
33	1	13	9	2	2	2485	1	40524	1
34	1	18	12	3	3	1864	1	40524	1
35	2	26	8	2	2	2007	1	40524	1
36	1	7	10	3	3	1640	1	40524	1
1	1	13	14	1	1	3079	1	40547	1
2	1	36	6	2	2	2647	1	40547	1
3	1	23	9	3	3	2360	1	40547	1
4	1	8	7	2	2	2120	1	40547	1
5	2	26	4	3	3	2057	1	40547	1
6	1	15	1	2	2	1490	1	40547	1
7	2	30	11	1	1	1925	1	40547	1
8	2	24	14	1	1	2481	1	40547	1
9	2	10	17	2	2	2867	1	40547	1
10	2	5	12	2	2	4408	1	40547	1
11	2	1	1	3	3	2325	1	40547	1
12	1	31	4	1	1	4193	1	40547	1
13	1	18	10	1	1	1590	1	40547	1
14	1	35	17	2	2	5365	1	40547	1
15	2	14	13	3	3	4000	1	40547	1
16	2	7	10	3	1	2638	0	40547	1
17	2	3	7	3	3	3254	1	40547	1
18	2	21	16	3	3	4677	1	40547	1
19	2	34	9	1	1	2238	1	40547	1
20	2	16	8	2	2	5152	1	40547	1
21	1	12	2	3	3	3999	1	40547	1
22	2	9	6	2	2	1683	1	40547	1
23	1	22	3	2	2	1403	1	40547	1
24	1	19	13	2	3	2354	0	40547	1
25	2	6	15	3	3	3143	1	40547	1
26	1	25	18	1	1	4345	1	40547	1
27	1	20	8	2	2	3055	1	40547	1
28	1	17	11	2	2	3859	1	40547	1
29	2	4	18	1	1	1788	1	40547	1
30	2	28	5	2	2	2104	1	40547	1
31	1	29	16	2	2	1591	1	40547	1
32	2	2	2	1	1	1441	1	40547	1
33	1	33	12	2	2	1245	1	40547	1
34	1	32	15	1	1	2761	1	40547	1
35	2	11	3	1	1	3375	1	40547	1
36	1	27	5	3	3	4909	1	40547	1
1	1	15	8	3	3	3732	1	40550	1
2	2	25	15	1	3	3	0	40550	1
3	2	12	17	2	3	4	0	40550	1
4	1	23	12	1	3	3	0	40550	1
5	2	35	3	1	3	3	0	40550	1
6	2	2	14	2	3	3	0	40550	1
7	1	16	2	1	3	3	0	40550	1
8	2	22	5	2	3	3	0	40550	1
9	1	36	1	1	3	3	0	40550	1
10	2	17	16	3	3	3	1	40550	1
11	1	33	9	3	3	3	1	40550	1
12	2	34	6	1	3	3	0	40550	1
13	2	8	13	3	3	3	1	40550	1
14	2	14	10	2	3	3	0	40550	1
15	1	29	11	2	3	3	0	40550	1
16	1	26	14	1	3	4	0	40550	1
17	1	19	16	3	3	3	1	40550	1
18	1	11	6	3	3	3	1	40550	1
19	1	9	17	1	3	3	0	40550	1
20	1	10	7	2	3	3	0	40550	1
21	2	27	12	1	3	3	0	40550	1
22	1	21	13	2	3	3	0	40550	1
23	2	18	7	1	3	3	0	40550	1
24	1	7	3	2	3	3	0	40550	1
25	2	5	2	1	3	3	0	40550	1
26	2	20	11	1	3	3	0	40550	1
27	1	4	15	2	3	3	0	40550	1
28	1	24	18	3	3	3	1	40550	1
29	2	3	4	3	3	3	1	40550	1
30	2	6	1	1	3	3	0	40550	1
31	1	31	5	2	3	3	0	40550	1
32	2	32	9	1	3	2	0	40550	1
33	2	13	8	2	3	3	0	40550	1
34	2	30	18	3	3	3	1	40550	1
35	1	28	4	2	3	3	0	40550	1
36	1	1	10	2	3	3	0	40550	1
1	1	32	14	3	3	4137	1	40564	1
2	1	11	16	3	1	3338	0	40564	1
3	2	33	14	1	1	2835	1	40564	1
4	2	21	11	3	3	1762	1	40564	1
5	1	30	6	1	1	2425	1	40564	1
6	2	22	15	1	1	2442	1	40564	1
7	1	17	4	1	1	1873	1	40564	1
8	1	14	17	1	1	1812	1	40564	1
9	2	29	9	2	2	2433	1	40564	1
10	1	6	8	3	3	2638	1	40564	1
11	1	35	5	1	3	2195	0	40564	1
12	2	19	10	3	2	2751	0	40564	1
13	1	31	18	1	1	2004	1	40564	1
14	2	15	13	1	1	1602	1	40564	1
15	1	34	1	2	2	1875	1	40564	1
16	2	23	18	1	2	3009	0	40564	1
17	2	13	17	1	1	2712	1	40564	1
18	2	20	16	3	3	1989	1	40564	1
19	1	4	12	3	3	1235	1	40564	1
20	1	36	13	3	3	2435	1	40564	1
21	2	7	12	3	3	1953	1	40564	1
22	2	12	5	1	1	1981	1	40564	1
23	1	8	15	2	2	2202	1	40564	1
24	1	25	2	3	3	1343	1	40564	1
25	1	10	10	1	1	1594	1	40564	1
26	1	3	3	3	2	1736	0	40564	1
27	2	2	8	3	3	2182	1	40564	1
28	2	26	1	2	3	1506	0	40564	1
29	1	18	7	3	3	1557	1	40564	1
30	2	1	6	3	3	1431	1	40564	1
31	2	28	2	3	3	2450	1	40564	1
32	1	5	11	1	1	1899	1	40564	1
33	1	16	9	2	2	2220	1	40564	1
34	2	24	7	3	1	2720	0	40564	1
35	2	27	3	2	2	2296	1	40564	1
36	2	9	4	2	2	1236	1	40564	1
1	1	33	13	2	2	3428	1	40601	1
2	1	2	6	3	1	1990	0	40601	1
3	2	12	4	2	1	2918	0	40601	1
4	2	23	17	1	1	2665	1	40601	1
5	1	6	14	3	3	1969	1	40601	1
6	1	4	9	2	1	2783	0	40601	1
7	1	25	3	3	1	1520	0	40601	1
8	2	16	1	3	1	1675	0	40601	1
9	2	27	13	3	3	2581	1	40601	1
10	2	7	6	2	2	1569	1	40601	1
11	1	9	18	1	1	1392	1	40601	1
12	2	10	18	3	2	2419	0	40601	1
13	1	21	17	3	1	1888	0	40601	1
14	1	32	1	3	2	1784	0	40601	1
15	2	13	15	1	1	1975	1	40601	1
16	1	26	2	2	2	1486	1	40601	1
17	2	8	14	1	1	2089	1	40601	1
18	2	29	11	2	2	1574	1	40601	1
19	2	22	10	1	1	2004	1	40601	1
20	1	31	10	2	2	1344	1	40601	1
21	1	34	5	3	3	1943	1	40601	1
22	2	20	3	1	1	1474	1	40601	1
23	1	36	16	3	3	1811	1	40601	1
24	2	19	12	1	1	1776	1	40601	1
25	1	35	4	1	1	1856	1	40601	1
26	1	15	11	2	2	1304	1	40601	1
27	1	18	15	1	3	1868	0	40601	1
28	2	3	16	1	3	2550	0	40601	1
29	2	28	7	1	1	1905	1	40601	1
30	1	11	12	1	2	1644	0	40601	1
31	2	1	2	1	1	1700	1	40601	1
32	1	5	7	3	1	1611	0	40601	1
33	2	30	8	1	2	1664	0	40601	1
34	2	14	9	1	3	2165	0	40601	1
35	2	24	5	2	2	1778	1	40601	1
36	1	17	8	3	3	1919	1	40601	1
1	2	31	12	2	2	3217	1	40608	1
2	2	21	5	3	1	1867	0	40608	1
3	2	23	14	3	3	1512	1	40608	1
4	2	7	7	1	1	1481	1	40608	1
5	2	25	10	2	2	1847	1	40608	1
6	1	33	8	1	3	1784	0	40608	1
7	1	32	6	3	3	1159	1	40608	1
8	1	29	14	3	3	2045	1	40608	1
9	1	24	3	3	3	2214	1	40608	1
10	2	28	11	2	2	1025	1	40608	1
11	1	17	13	1	1	1231	1	40608	1
12	2	6	3	3	3	3891	1	40608	1
13	2	3	6	1	1	1426	1	40608	1
14	1	30	1	2	2	1112	1	40608	1
15	1	27	16	3	3	1360	1	40608	1
16	1	11	5	2	2	895	1	40608	1
17	2	20	9	1	1	1221	1	40608	1
18	2	12	13	2	3	1726	0	40608	1
19	1	34	12	3	3	1759	1	40608	1
20	1	9	15	1	1	1237	1	40608	1
21	2	26	1	2	2	1522	1	40608	1
22	1	22	18	3	3	975	1	40608	1
23	1	16	2	2	1	1334	0	40608	1
24	2	19	8	3	3	1938	1	40608	1
25	2	13	17	2	2	1376	1	40608	1
26	1	14	10	3	3	1303	1	40608	1
27	1	10	17	1	1	1337	1	40608	1
28	2	36	18	2	3	1465	0	40608	1
29	1	2	7	1	1	1419	1	40608	1
30	2	8	2	1	1	1765	1	40608	1
31	1	18	4	3	3	1061	1	40608	1
32	1	15	9	1	1	1115	1	40608	1
33	2	1	4	2	2	926	1	40608	1
34	1	5	11	2	3	1019	0	40608	1
35	2	4	15	2	2	1196	1	40608	1
36	2	35	16	1	1	1406	1	40608	1
1	1	2	9	3	3	3532	1	40615	1
2	2	29	6	3	3	2798	1	40615	1
3	1	12	6	1	1	3853	1	40615	1
4	1	25	7	1	1	2404	1	40615	1
5	1	3	1	2	2	905	1	40615	1
6	2	15	10	2	3	6402	0	40615	1
7	2	31	9	1	1	2474	1	40615	1
8	2	11	11	1	2	1157	0	40615	1
9	1	9	8	2	2	1879	1	40615	1
10	2	26	5	1	1	2980	1	40615	1
11	2	21	1	1	1	2373	1	40615	1
12	2	27	7	1	1	3979	1	40615	1
13	2	35	12	2	2	1933	1	40615	1
14	1	28	18	2	2	1327	1	40615	1
15	1	34	4	2	1	2411	0	40615	1
16	2	22	8	2	2	2380	1	40615	1
17	2	24	18	1	1	3048	1	40615	1
18	1	5	10	1	1	1220	1	40615	1
19	1	4	13	2	2	988	1	40615	1
20	1	32	3	1	1	3693	1	40615	1
21	2	36	4	2	2	3381	1	40615	1
22	1	18	15	2	2	1118	1	40615	1
23	2	23	13	2	2	2293	1	40615	1
24	2	16	3	3	3	3205	1	40615	1
25	2	33	16	3	2	2507	0	40615	1
26	1	17	5	1	1	1664	1	40615	1
27	1	13	12	2	2	812	1	40615	1
28	1	19	16	1	1	2125	1	40615	1
29	1	1	2	3	3	2500	1	40615	1
30	1	14	17	1	1	2462	1	40615	1
31	1	7	11	2	2	1261	1	40615	1
32	2	20	14	1	1	3431	1	40615	1
33	2	10	15	2	2	3324	1	40615	1
34	2	8	17	3	3	3099	1	40615	1
35	1	30	14	2	2	2838	1	40615	1
36	2	6	2	2	2	1984	1	40615	1
1	1	5	1	1	1	21905	1	40619	1
2	1	31	5	2	2	35405	1	40619	1
3	2	27	3	3	3	13587	1	40619	1
4	1	6	3	3	3	2616	1	40619	1
5	2	19	4	1	3	18807	0	40619	1
6	2	29	16	1	1	9053	1	40619	1
7	1	7	15	3	3	24959	1	40619	1
8	2	36	14	3	3	7477	1	40619	1
9	1	8	10	3	3	2682	1	40619	1
10	2	16	15	2	2	17537	1	40619	1
11	2	26	13	2	2	4870	1	40619	1
12	2	4	12	3	1	12304	0	40619	1
13	1	22	16	3	3	2493	1	40619	1
14	1	10	7	1	1	8093	1	40619	1
15	2	34	18	2	3	5134	0	40619	1
16	2	24	9	3	3	3230	1	40619	1
17	1	14	18	3	3	2853	1	40619	1
18	1	30	4	2	2	12627	1	40619	1
19	2	18	17	2	2	2743	1	40619	1
20	2	1	1	1	1	2481	1	40619	1
21	2	2	6	1	1	13689	1	40619	1
22	1	35	6	3	1	4002	0	40619	1
23	1	11	9	1	1	3048	1	40619	1
24	2	12	11	2	2	6386	1	40619	1
25	1	21	17	3	3	6288	1	40619	1
26	1	9	11	2	2	1986	1	40619	1
27	1	32	8	1	1	2023	1	40619	1
28	1	13	12	1	1	1534	1	40619	1
29	2	15	2	2	1	1811	0	40619	1
30	2	33	8	2	3	4734	0	40619	1
31	1	25	2	2	2	3970	1	40619	1
32	1	17	13	3	3	10211	1	40619	1
33	2	20	7	3	2	18393	0	40619	1
34	1	3	14	3	3	4284	1	40619	1
35	2	23	5	3	2	5219	0	40619	1
36	2	28	10	1	3	2892	0	40619	1
1	1	8	12	3	2	4537	0	40623	1
2	2	14	11	2	1	3167	0	40623	1
3	1	17	8	2	1	1971	0	40623	1
4	1	30	2	3	1	1965	0	40623	1
5	2	4	5	3	1	1428	0	40623	1
6	2	10	13	1	1	1321	1	40623	1
7	1	11	9	1	1	1236	1	40623	1
8	2	6	9	3	2	2116	0	40623	1
9	2	33	12	3	2	1701	0	40623	1
10	2	2	6	3	1	1305	0	40623	1
11	1	1	5	1	1	1032	1	40623	1
12	1	28	3	1	1	2268	1	40623	1
13	2	22	14	1	2	3692	0	40623	1
14	2	23	15	2	2	1820	1	40623	1
15	2	19	4	3	1	872	0	40623	1
16	2	24	18	1	1	1020	1	40623	1
17	2	9	3	3	2	1702	0	40623	1
18	1	34	4	3	1	1514	0	40623	1
19	2	25	17	1	2	1787	0	40623	1
20	1	5	6	3	1	864	0	40623	1
21	1	15	15	1	1	1192	1	40623	1
22	1	27	11	1	1	808	1	40623	1
23	1	3	7	1	2	2140	0	40623	1
24	1	31	17	2	2	2366	1	40623	1
25	2	20	10	3	2	2680	0	40623	1
26	2	36	16	3	2	1460	0	40623	1
27	1	16	16	3	1	1727	0	40623	1
28	1	32	14	1	1	3896	1	40623	1
29	2	12	1	3	1	2518	0	40623	1
30	1	18	13	1	2	2220	0	40623	1
31	1	7	1	1	1	1597	1	40623	1
32	2	29	2	3	1	3058	0	40623	1
33	2	21	8	3	2	2635	0	40623	1
34	1	26	18	3	2	2079	0	40623	1
35	2	35	7	2	2	2543	1	40623	1
36	1	13	10	2	1	2960	0	40623	1
1	1	21	7	3	3	3188	1	40629	1
2	1	23	6	2	2	2198	1	40629	1
3	1	10	8	2	2	2292	1	40629	1
4	1	5	14	2	2	1708	1	40629	1
5	2	22	3	2	2	2817	1	40629	1
6	2	32	18	3	2	5004	0	40629	1
7	1	27	17	1	1	1899	1	40629	1
8	1	11	12	2	2	1628	1	40629	1
9	2	20	2	1	1	2323	1	40629	1
10	2	26	7	2	2	2060	1	40629	1
11	2	3	16	3	2	3654	0	40629	1
12	1	29	13	3	3	3255	1	40629	1
13	2	30	17	2	2	2017	1	40629	1
14	1	1	16	3	3	1478	1	40629	1
15	2	12	15	1	1	2758	1	40629	1
16	1	14	4	1	1	2468	1	40629	1
17	2	35	4	3	3	1556	1	40629	1
18	1	9	2	3	3	1733	1	40629	1
19	2	15	14	3	3	3667	1	40629	1
20	1	17	10	3	3	1778	1	40629	1
21	2	28	11	3	3	1909	1	40629	1
22	1	18	11	1	2	2209	0	40629	1
23	2	16	13	1	1	2062	1	40629	1
24	2	31	1	2	2	2867	1	40629	1
25	1	19	18	1	3	2832	0	40629	1
26	1	25	5	2	2	1903	1	40629	1
27	2	36	9	1	1	1850	1	40629	1
28	1	33	3	3	3	2329	1	40629	1
29	2	13	8	2	2	1649	1	40629	1
30	1	8	15	2	2	3064	1	40629	1
31	2	24	10	3	3	2028	1	40629	1
32	1	7	1	1	1	2603	1	40629	1
33	2	34	6	3	3	3270	1	40629	1
34	1	4	9	3	3	2146	1	40629	1
35	2	6	5	1	1	2307	1	40629	1
36	2	2	12	1	1	1287	1	40629	1
1	2	19	9	1	1	7382	1	40638	1
2	2	29	11	2	2	1421	1	40638	1
3	1	21	4	3	3	1812	1	40638	1
4	2	12	16	3	3	2857	1	40638	1
5	1	9	10	3	3	1488	1	40638	1
6	2	18	3	1	1	1166	1	40638	1
7	2	28	4	3	3	3327	1	40638	1
8	2	17	18	1	1	1987	1	40638	1
9	1	33	3	2	3	3307	0	40638	1
10	2	8	14	1	1	3032	1	40638	1
11	2	31	5	2	2	1829	1	40638	1
12	2	26	2	1	1	1686	1	40638	1
13	1	25	11	1	1	1948	1	40638	1
14	1	11	7	1	1	3349	1	40638	1
15	1	36	9	2	2	2856	1	40638	1
16	2	16	13	1	2	2686	0	40638	1
17	2	15	10	2	2	2081	1	40638	1
18	1	23	12	3	3	1238	1	40638	1
19	1	24	17	2	2	2480	1	40638	1
20	1	13	18	2	2	2895	1	40638	1
21	1	34	2	3	2	2513	0	40638	1
22	1	20	6	2	2	2013	1	40638	1
23	1	30	5	3	3	3282	1	40638	1
24	2	32	12	3	2	4126	0	40638	1
25	1	10	8	1	1	3774	1	40638	1
26	1	14	1	1	2	4428	0	40638	1
27	1	22	13	2	2	1386	1	40638	1
28	1	3	15	3	3	2181	1	40638	1
29	1	6	14	1	1	1929	1	40638	1
30	2	2	15	1	1	3326	1	40638	1
31	2	35	17	3	2	3234	0	40638	1
32	2	7	7	3	3	3029	1	40638	1
33	2	27	6	1	1	1347	1	40638	1
34	1	1	16	1	1	1271	1	40638	1
35	2	4	8	2	2	3548	1	40638	1
36	2	5	1	2	2	1309	1	40638	1
1	2	5	16	3	3	5084	1	40649	1
2	1	11	13	1	1	3043	1	40649	1
3	2	9	17	2	2	2959	1	40649	1
4	2	33	14	3	3	2907	1	40649	1
5	2	26	6	1	1	1952	1	40649	1
6	1	25	4	1	1	1854	1	40649	1
7	2	14	12	3	3	3326	1	40649	1
8	1	13	9	1	1	1518	1	40649	1
9	1	8	7	2	2	1023	1	40649	1
10	2	24	1	1	1	1476	1	40649	1
11	1	6	10	2	2	949	1	40649	1
12	2	29	13	3	3	1778	1	40649	1
13	2	10	15	3	2	1615	0	40649	1
14	1	20	18	2	2	1045	1	40649	1
15	2	16	8	1	1	1110	1	40649	1
16	1	19	12	2	2	806	1	40649	1
17	2	31	2	3	3	2009	1	40649	1
18	1	3	16	1	1	1631	1	40649	1
19	1	4	17	1	1	1210	1	40649	1
20	2	30	5	3	2	2354	0	40649	1
21	2	23	9	3	3	1807	1	40649	1
22	1	15	6	1	1	2035	1	40649	1
23	1	27	3	3	3	1892	1	40649	1
24	1	32	2	3	3	1329	1	40649	1
25	2	22	7	3	2	2496	0	40649	1
26	2	18	4	1	1	1249	1	40649	1
27	1	17	15	1	1	952	1	40649	1
28	1	12	8	1	1	1311	1	40649	1
29	1	21	14	2	2	1034	1	40649	1
30	1	36	1	1	1	1184	1	40649	1
31	1	35	11	3	3	1817	1	40649	1
32	1	28	5	1	1	930	1	40649	1
33	2	2	10	2	2	1513	1	40649	1
34	2	7	3	2	2	1459	1	40649	1
35	2	34	11	2	2	906	1	40649	1
36	2	1	18	3	3	1385	1	40649	1
1	1	25	11	1	1	1899	1	40650	1
2	1	36	4	2	2	2295	1	40650	1
3	2	30	18	2	2	1979	1	40650	1
4	2	24	5	2	2	1717	1	40650	1
5	2	12	12	2	2	2846	1	40650	1
6	2	20	15	2	2	9372	1	40650	1
7	1	17	12	1	1	2979	1	40650	1
8	1	3	1	2	2	2358	1	40650	1
9	1	6	15	2	2	1708	1	40650	1
10	1	21	2	1	1	3439	1	40650	1
11	2	7	7	1	1	6769	1	40650	1
12	1	2	16	2	2	1498	1	40650	1
13	2	18	9	2	2	3305	1	40650	1
14	2	5	2	1	1	3208	1	40650	1
15	2	1	14	3	2	3711	0	40650	1
16	2	27	11	3	3	5757	1	40650	1
17	1	35	5	3	3	3941	1	40650	1
18	2	32	4	3	3	1986	1	40650	1
19	2	28	13	1	1	2542	1	40650	1
20	2	33	17	3	3	4359	1	40650	1
21	1	4	7	1	2	5794	0	40650	1
22	2	34	6	3	3	2556	1	40650	1
23	2	22	1	3	3	3590	1	40650	1
24	2	15	8	2	2	1729	1	40650	1
25	1	29	13	1	1	4053	1	40650	1
26	2	13	10	1	1	6954	1	40650	1
27	1	9	18	2	2	2695	1	40650	1
28	1	10	6	1	1	4884	1	40650	1
29	1	16	3	3	3	5432	1	40650	1
30	1	14	8	2	2	2981	1	40650	1
31	2	11	16	3	3	3296	1	40650	1
32	1	8	17	1	1	3252	1	40650	1
33	1	26	9	3	3	4047	1	40650	1
34	1	23	10	1	1	1568	1	40650	1
35	2	19	3	1	1	3726	1	40650	1
36	1	31	14	3	3	1673	1	40650	1
1	2	31	14	2	2	3515	1	40655	1
2	2	22	6	2	3	2410	0	40655	1
3	1	2	9	2	2	1557	1	40655	1
4	1	5	7	3	3	1638	1	40655	1
5	1	34	8	1	1	1244	1	40655	1
6	2	33	15	1	2	1743	0	40655	1
7	1	36	14	2	2	1183	1	40655	1
8	2	7	18	3	3	1465	1	40655	1
9	2	9	9	3	3	1963	1	40655	1
10	1	20	10	2	2	1310	1	40655	1
11	1	15	1	1	1	1525	1	40655	1
12	1	32	16	3	3	1089	1	40655	1
13	2	13	11	3	3	2185	1	40655	1
14	2	35	10	2	1	2121	0	40655	1
15	1	30	5	3	3	1465	1	40655	1
16	2	25	2	2	2	1328	1	40655	1
17	2	19	3	2	1	3543	0	40655	1
18	1	26	2	1	1	1737	1	40655	1
19	2	29	7	3	2	1347	0	40655	1
20	1	28	18	1	1	1857	1	40655	1
21	1	12	6	1	2	1565	0	40655	1
22	1	8	17	3	3	1170	1	40655	1
23	2	10	13	1	1	1528	1	40655	1
24	1	27	15	3	3	1982	1	40655	1
25	1	6	3	2	2	1023	1	40655	1
26	1	16	4	3	3	1085	1	40655	1
27	2	14	4	3	3	1787	1	40655	1
28	1	18	13	3	3	1840	1	40655	1
29	2	21	12	1	1	1161	1	40655	1
30	2	11	8	1	1	1333	1	40655	1
31	2	4	5	3	1	1743	0	40655	1
32	2	23	1	1	1	1908	1	40655	1
33	1	17	12	3	3	1585	1	40655	1
34	1	1	11	2	2	2021	1	40655	1
35	2	24	16	3	1	1458	0	40655	1
36	2	3	17	2	3	1402	0	40655	1
1	2	26	7	2	2	6110	1	40656	1
2	1	1	4	3	3	3507	1	40656	1
3	1	7	18	1	1	2621	1	40656	1
4	2	5	4	3	3	4035	1	40656	1
5	2	12	14	1	2	2372	0	40656	1
6	2	31	2	1	1	1847	1	40656	1
7	1	30	15	3	3	2381	1	40656	1
8	2	10	8	3	3	2284	1	40656	1
9	2	14	17	1	1	2683	1	40656	1
10	2	3	11	2	2	2344	1	40656	1
11	1	4	13	1	1	2782	1	40656	1
12	1	20	7	3	3	2384	1	40656	1
13	2	23	13	3	2	4586	0	40656	1
14	2	17	1	2	2	4847	1	40656	1
15	1	36	14	2	2	1542	1	40656	1
16	1	2	3	3	3	1563	1	40656	1
17	2	22	3	2	2	3410	1	40656	1
18	1	24	12	1	1	1972	1	40656	1
19	1	33	8	1	1	3320	1	40656	1
20	2	29	6	2	2	2634	1	40656	1
21	1	19	11	2	2	5194	1	40656	1
22	1	35	10	2	2	1589	1	40656	1
23	1	32	9	2	2	1536	1	40656	1
24	1	21	2	2	2	2104	1	40656	1
25	1	27	16	2	2	2171	1	40656	1
26	2	25	9	3	3	3957	1	40656	1
27	1	34	6	3	3	3766	1	40656	1
28	1	8	5	2	2	2362	1	40656	1
29	2	13	16	3	1	5030	0	40656	1
30	2	18	5	2	2	1816	1	40656	1
31	1	11	1	3	3	4484	1	40656	1
32	2	15	12	2	2	1500	1	40656	1
33	1	28	17	2	2	2586	1	40656	1
34	2	9	10	1	1	1694	1	40656	1
35	2	6	15	3	3	1929	1	40656	1
36	2	16	18	3	3	3177	1	40656	1
1	1	31	5	3	3	6156	1	40658	1
2	2	8	5	2	2	2906	1	40658	1
3	1	34	15	2	2	2358	1	40658	1
4	2	26	18	3	3	2346	1	40658	1
5	2	19	2	2	2	4815	1	40658	1
6	2	35	6	1	1	4221	1	40658	1
7	2	20	14	1	1	10480	1	40658	1
8	2	7	1	1	1	3241	1	40658	1
9	1	25	12	2	2	2592	1	40658	1
10	2	33	17	2	2	1972	1	40658	1
11	2	11	3	2	2	2273	1	40658	1
12	2	32	16	2	2	2591	1	40658	1
13	1	10	2	1	1	1675	1	40658	1
14	1	22	16	1	1	1621	1	40658	1
15	1	24	10	3	3	3071	1	40658	1
16	1	28	7	1	1	1856	1	40658	1
17	2	13	9	1	1	4960	1	40658	1
18	2	30	15	2	2	3120	1	40658	1
19	1	2	3	1	1	2202	1	40658	1
20	2	12	8	2	2	2359	1	40658	1
21	1	9	17	1	1	1443	1	40658	1
22	1	1	18	1	1	3699	1	40658	1
23	2	21	13	2	2	1567	1	40658	1
24	2	14	11	2	2	1760	1	40658	1
25	1	6	6	3	3	2679	1	40658	1
26	2	27	10	1	1	2301	1	40658	1
27	2	23	4	3	3	3183	1	40658	1
28	1	4	9	1	1	2018	1	40658	1
29	1	15	11	2	2	1520	1	40658	1
30	1	29	4	1	1	1570	1	40658	1
31	1	16	1	2	2	2881	1	40658	1
32	2	17	12	3	3	1429	1	40658	1
33	1	5	13	2	2	2534	1	40658	1
34	1	18	8	3	3	1910	1	40658	1
35	2	36	7	1	1	2140	1	40658	1
36	1	3	14	2	2	1565	1	40658	1
1	2	32	9	1	1	3275	1	40664	1
2	2	15	18	2	2	2799	1	40664	1
3	1	8	9	1	2	2387	0	40664	1
4	2	10	16	1	1	2090	1	40664	1
5	2	35	2	2	3	2478	0	40664	1
6	2	23	7	3	2	2499	0	40664	1
7	1	18	11	2	3	1374	0	40664	1
8	1	14	6	1	2	1223	0	40664	1
9	1	21	4	3	3	1123	1	40664	1
10	2	4	3	3	1	1948	0	40664	1
11	1	12	5	2	2	1334	1	40664	1
12	1	31	15	2	2	1348	1	40664	1
13	2	27	4	2	1	1829	0	40664	1
14	1	1	12	3	3	1245	1	40664	1
15	1	9	8	1	1	1232	1	40664	1
16	2	5	5	1	1	1856	1	40664	1
17	1	22	13	1	3	2089	0	40664	1
18	1	7	18	1	1	1686	1	40664	1
19	2	26	6	3	3	2923	1	40664	1
20	1	25	3	1	1	1876	1	40664	1
21	2	19	1	3	3	1782	1	40664	1
22	2	13	8	2	3	2105	0	40664	1
23	2	36	10	1	1	1760	1	40664	1
24	1	29	2	2	2	950	1	40664	1
25	2	17	12	3	2	899	0	40664	1
26	1	3	17	1	2	1031	0	40664	1
27	1	34	7	3	1	1747	0	40664	1
28	1	30	1	2	2	1104	1	40664	1
29	1	2	16	3	2	1503	0	40664	1
30	2	28	15	1	2	1882	0	40664	1
31	2	11	14	1	1	1554	1	40664	1
32	2	6	17	1	1	1776	1	40664	1
33	2	24	11	2	2	1184	1	40664	1
34	2	20	13	2	2	1309	1	40664	1
35	1	16	10	3	1	1663	0	40664	1
36	1	33	14	1	1	1597	1	40664	1
1	2	5	12	1	1	5073	1	40665	1
2	1	32	2	2	2	1976	1	40665	1
3	1	1	5	2	2	1117	1	40665	1
4	2	33	8	2	2	1842	1	40665	1
5	2	16	10	1	1	1875	1	40665	1
6	1	11	11	3	3	2523	1	40665	1
7	1	14	9	1	1	2032	1	40665	1
8	1	3	8	3	3	1777	1	40665	1
9	1	25	17	2	2	3160	1	40665	1
10	1	8	14	3	3	1524	1	40665	1
11	2	6	13	1	1	1934	1	40665	1
12	2	15	6	1	1	1560	1	40665	1
13	2	23	15	1	1	1769	1	40665	1
14	1	7	15	2	2	1978	1	40665	1
15	2	26	18	3	3	2397	1	40665	1
16	1	13	12	3	3	1451	1	40665	1
17	2	34	14	2	2	2265	1	40665	1
18	1	17	3	1	1	2132	1	40665	1
19	1	19	16	2	2	977	1	40665	1
20	2	24	1	2	2	1716	1	40665	1
21	2	36	7	3	3	1942	1	40665	1
22	1	28	7	1	2	3021	0	40665	1
23	2	4	17	2	2	1407	1	40665	1
24	2	30	9	1	1	2295	1	40665	1
25	2	22	16	2	2	2832	1	40665	1
26	1	27	10	2	2	1541	1	40665	1
27	1	21	4	3	2	1380	0	40665	1
28	2	2	3	1	1	1535	1	40665	1
29	1	10	6	1	1	1720	1	40665	1
30	2	20	2	3	3	1999	1	40665	1
31	1	29	18	1	1	1635	1	40665	1
32	2	18	4	1	1	1146	1	40665	1
33	1	35	1	1	1	2752	1	40665	1
34	1	12	13	3	3	2147	1	40665	1
35	2	31	5	3	3	2225	1	40665	1
36	2	9	11	2	2	1057	1	40665	1
1	2	14	15	1	1	3719	1	40668	1
2	2	16	10	1	2	2378	0	40668	1
3	2	33	11	2	3	2699	0	40668	1
4	1	23	10	3	3	1821	1	40668	1
5	1	18	4	2	2	1078	1	40668	1
6	2	21	13	1	1	1258	1	40668	1
7	1	2	7	1	1	2171	1	40668	1
8	2	19	9	1	2	1843	0	40668	1
9	1	9	16	1	1	1684	1	40668	1
10	2	10	7	3	2	2433	0	40668	1
11	2	24	5	2	2	1316	1	40668	1
12	1	5	13	2	2	2339	1	40668	1
13	2	20	14	3	3	2173	1	40668	1
14	1	27	14	3	3	2089	1	40668	1
15	1	35	17	3	3	3103	1	40668	1
16	2	28	12	1	1	1840	1	40668	1
17	2	8	18	2	2	1934	1	40668	1
18	2	17	16	1	3	1429	0	40668	1
19	1	25	8	3	3	1738	1	40668	1
20	1	30	1	2	2	1601	1	40668	1
21	1	3	11	3	3	1485	1	40668	1
22	2	31	6	3	3	1652	1	40668	1
23	1	22	12	1	1	1273	1	40668	1
24	2	34	17	3	3	1595	1	40668	1
25	2	13	8	2	3	2470	0	40668	1
26	2	26	4	2	2	1997	1	40668	1
27	1	15	9	1	1	2265	1	40668	1
28	1	4	18	3	3	1239	1	40668	1
29	1	36	6	3	3	2095	1	40668	1
30	2	32	3	2	2	2287	1	40668	1
31	2	7	2	3	3	1781	1	40668	1
32	1	12	15	3	3	1389	1	40668	1
33	1	6	2	1	1	1710	1	40668	1
34	1	29	5	1	1	1139	1	40668	1
35	1	1	3	1	2	2853	0	40668	1
36	2	11	1	1	1	1720	1	40668	1
1	1	21	14	3	3	2869	1	40672	1
2	2	11	2	1	1	1697	1	40672	1
3	1	13	6	3	3	1961	1	40672	1
4	2	33	3	1	1	1543	1	40672	1
5	1	4	2	2	2	1212	1	40672	1
6	2	2	14	3	3	3299	1	40672	1
7	2	20	16	1	1	2769	1	40672	1
8	1	32	11	3	3	1459	1	40672	1
9	2	16	10	1	1	2250	1	40672	1
10	1	22	10	1	1	1257	1	40672	1
11	1	23	12	1	1	1564	1	40672	1
12	2	27	13	1	1	1913	1	40672	1
13	2	29	5	3	3	2025	1	40672	1
14	1	6	15	1	1	1368	1	40672	1
15	1	10	8	3	3	1401	1	40672	1
16	2	15	18	2	2	1347	1	40672	1
17	2	30	7	3	3	3693	1	40672	1
18	2	17	4	1	1	2394	1	40672	1
19	1	8	16	2	2	965	1	40672	1
20	2	7	6	2	2	1554	1	40672	1
21	1	36	9	1	1	3616	1	40672	1
22	1	34	4	3	3	1838	1	40672	1
23	2	18	12	2	2	699	1	40672	1
24	1	9	3	1	1	1139	1	40672	1
25	2	25	8	1	1	1850	1	40672	1
26	2	3	15	1	1	1266	1	40672	1
27	1	12	13	2	2	1297	1	40672	1
28	2	28	9	3	3	1612	1	40672	1
29	1	35	1	2	2	2331	1	40672	1
30	2	24	1	1	1	3660	1	40672	1
31	1	14	7	1	1	1419	1	40672	1
32	2	26	17	1	1	2230	1	40672	1
33	2	31	11	1	1	854	1	40672	1
34	1	1	18	1	1	1049	1	40672	1
35	1	19	5	3	3	1526	1	40672	1
36	1	5	17	1	1	2349	1	40672	1
1	2	34	12	3	2	5976	0	40685	1
2	1	1	15	1	1	2229	1	40685	1
3	1	13	8	2	2	3017	1	40685	1
4	1	11	13	3	3	1929	1	40685	1
5	1	25	6	2	2	3769	1	40685	1
6	1	29	18	1	1	1397	1	40685	1
7	1	36	4	1	1	2867	1	40685	1
8	2	28	9	2	2	1426	1	40685	1
9	2	14	7	1	2	3170	0	40685	1
10	2	6	16	3	3	2418	1	40685	1
11	1	4	7	3	3	4061	1	40685	1
12	1	19	5	3	3	1977	1	40685	1
13	1	7	14	3	3	1339	1	40685	1
14	1	5	9	1	1	2208	1	40685	1
15	2	24	14	3	3	2948	1	40685	1
16	2	17	8	1	1	2085	1	40685	1
17	1	16	16	2	2	1881	1	40685	1
18	1	30	17	3	3	1179	1	40685	1
19	2	22	10	3	3	1300	1	40685	1
20	2	26	3	3	3	1055	1	40685	1
21	1	18	3	3	3	2123	1	40685	1
22	2	32	18	2	2	1634	1	40685	1
23	1	9	12	3	3	789	1	40685	1
24	2	20	5	2	2	5527	1	40685	1
25	2	8	17	1	1	3471	1	40685	1
26	2	12	1	3	3	2911	1	40685	1
27	1	27	11	2	2	3561	1	40685	1
28	2	15	15	2	1	4004	0	40685	1
29	2	31	13	2	2	1279	1	40685	1
30	2	35	2	3	3	4146	1	40685	1
31	1	33	1	3	1	5022	0	40685	1
32	2	3	11	1	1	4068	1	40685	1
33	1	23	10	2	2	805	1	40685	1
34	1	2	2	1	1	2363	1	40685	1
35	2	10	4	2	2	1506	1	40685	1
36	2	21	6	1	1	1552	1	40685	1
1	2	21	8	1	1	3387	1	40694	1
2	1	35	14	3	1	4087	0	40694	1
3	1	4	10	2	2	2678	1	40694	1
4	1	11	12	3	3	2871	1	40694	1
5	2	23	7	3	3	2447	1	40694	1
6	2	27	9	1	1	3635	1	40694	1
7	2	17	11	3	3	2009	1	40694	1
8	1	29	2	3	3	3702	1	40694	1
9	2	31	6	1	1	4537	1	40694	1
10	2	32	4	1	1	2348	1	40694	1
11	2	25	17	1	1	3351	1	40694	1
12	1	14	7	2	2	1608	1	40694	1
13	1	15	6	1	3	3719	0	40694	1
14	1	33	11	2	2	4003	1	40694	1
15	1	7	17	2	2	1459	1	40694	1
16	1	36	16	2	2	984	1	40694	1
17	2	16	14	3	1	4052	0	40694	1
18	2	30	18	2	2	2016	1	40694	1
19	2	22	16	1	3	4527	0	40694	1
20	2	12	1	1	2	4667	0	40694	1
21	2	1	10	1	3	3450	0	40694	1
22	2	10	3	1	1	1567	1	40694	1
23	1	26	8	1	1	2152	1	40694	1
24	1	13	15	3	3	1697	1	40694	1
25	2	34	5	3	3	3371	1	40694	1
26	2	2	12	2	2	2352	1	40694	1
27	1	3	18	1	1	1736	1	40694	1
28	1	6	3	3	3	3013	1	40694	1
29	1	5	5	3	3	2379	1	40694	1
30	1	9	9	1	1	1766	1	40694	1
31	2	18	13	2	2	1848	1	40694	1
32	1	24	13	2	2	1886	1	40694	1
33	1	20	4	1	1	2350	1	40694	1
34	2	28	2	2	2	2973	1	40694	1
35	2	8	15	1	1	4845	1	40694	1
36	1	19	1	1	3	2606	0	40694	1
1	2	27	12	2	2	22908	1	40707	1
2	1	36	1	2	1	47071	0	40707	1
3	1	11	18	3	3	5733	1	40707	1
4	2	21	18	1	1	9671	1	40707	1
5	2	20	10	1	1	15654	1	40707	1
6	2	18	15	3	2	9462	0	40707	1
7	1	14	13	1	1	9559	1	40707	1
8	2	12	11	1	3	15087	0	40707	1
9	2	13	1	2	3	14153	0	40707	1
10	1	5	14	3	3	5020	1	40707	1
11	1	7	11	2	3	3650	0	40707	1
12	2	4	3	2	2	3225	1	40707	1
13	1	8	3	3	3	4050	1	40707	1
14	2	25	17	2	1	7888	0	40707	1
15	1	3	2	1	1	4850	1	40707	1
16	2	28	5	1	1	5407	1	40707	1
17	1	16	12	3	3	4319	1	40707	1
18	1	9	7	3	3	3263	1	40707	1
19	1	10	8	3	2	5661	0	40707	1
20	1	30	15	3	3	5065	1	40707	1
21	1	15	9	2	1	6553	0	40707	1
22	2	19	16	1	2	6014	0	40707	1
23	2	34	14	3	2	14473	0	40707	1
24	2	31	7	2	3	10333	0	40707	1
25	1	33	4	2	2	10143	1	40707	1
26	2	35	9	1	1	3069	1	40707	1
27	2	23	13	3	1	14624	0	40707	1
28	2	17	4	2	1	6075	0	40707	1
29	1	1	17	3	3	2918	1	40707	1
30	1	2	5	3	3	3199	1	40707	1
31	2	24	8	3	2	6133	0	40707	1
32	2	26	6	3	3	8193	1	40707	1
33	1	32	16	1	1	3601	1	40707	1
34	1	6	10	3	3	2867	1	40707	1
35	2	29	2	2	1	11201	0	40707	1
36	1	22	6	2	2	5071	1	40707	1
1	1	14	9	1	1	5331	1	40720	1
2	2	6	9	1	1	3587	1	40720	1
3	2	12	18	3	3	8512	1	40720	1
4	1	27	3	1	1	3163	1	40720	1
5	2	5	13	2	2	3579	1	40720	1
6	1	32	14	2	2	1357	1	40720	1
7	1	16	8	1	1	4438	1	40720	1
8	2	25	16	1	1	2146	1	40720	1
9	1	24	2	3	3	2892	1	40720	1
10	1	2	5	2	2	1467	1	40720	1
11	1	15	6	1	1	2337	1	40720	1
12	2	28	17	1	1	6799	1	40720	1
13	2	4	3	3	3	1979	1	40720	1
14	1	17	15	2	2	2287	1	40720	1
15	2	20	10	2	2	2318	1	40720	1
16	1	3	10	3	3	2833	1	40720	1
17	2	10	14	3	1	4009	0	40720	1
18	1	29	17	1	2	4635	0	40720	1
19	1	35	16	1	1	1915	1	40720	1
20	1	31	4	1	1	3791	1	40720	1
21	2	18	5	3	3	4607	1	40720	1
22	2	30	4	1	1	1629	1	40720	1
23	1	36	1	2	2	1793	1	40720	1
24	1	13	13	1	1	2724	1	40720	1
25	1	8	7	1	1	1616	1	40720	1
26	2	1	15	1	1	5278	1	40720	1
27	2	19	2	1	1	1672	1	40720	1
28	2	7	11	1	1	2151	1	40720	1
29	2	23	6	3	2	3797	0	40720	1
30	1	21	12	3	3	2763	1	40720	1
31	2	11	7	3	1	4226	0	40720	1
32	2	34	12	2	2	2543	1	40720	1
33	1	26	11	2	2	2205	1	40720	1
34	2	9	1	3	3	3000	1	40720	1
35	1	33	18	1	1	1196	1	40720	1
36	2	22	8	1	1	2240	1	40720	1
1	1	14	6	3	2	3483	0	40728	1
2	2	29	2	3	3	2941	1	40728	1
3	2	33	16	1	1	2031	1	40728	1
4	2	17	14	1	1	1746	1	40728	1
5	2	11	10	1	1	4011	1	40728	1
6	2	13	3	3	1	6082	0	40728	1
7	2	27	15	2	3	4468	0	40728	1
8	1	22	13	2	2	5204	1	40728	1
9	2	7	12	3	2	5461	0	40728	1
10	2	25	9	2	2	5047	1	40728	1
11	1	36	18	3	3	3333	1	40728	1
12	1	24	11	3	3	2586	1	40728	1
13	1	32	16	2	2	3780	1	40728	1
14	1	23	1	1	1	2175	1	40728	1
15	1	2	8	1	1	3391	1	40728	1
16	2	30	1	1	1	2211	1	40728	1
17	2	26	17	1	1	2761	1	40728	1
18	1	10	4	3	3	2987	1	40728	1
19	1	28	17	3	3	3627	1	40728	1
20	1	12	3	3	3	3572	1	40728	1
21	2	4	8	1	1	2342	1	40728	1
22	2	6	11	1	1	3863	1	40728	1
23	1	21	2	2	2	1146	1	40728	1
24	1	5	12	3	3	1727	1	40728	1
25	2	9	13	1	1	1603	1	40728	1
26	2	15	5	2	2	1406	1	40728	1
27	1	18	5	1	1	1207	1	40728	1
28	2	19	6	1	1	2845	1	40728	1
29	1	3	10	1	1	4200	1	40728	1
30	2	31	7	1	1	1605	1	40728	1
31	1	8	7	3	2	2487	0	40728	1
32	2	34	18	3	2	5367	0	40728	1
33	1	20	9	2	2	4372	1	40728	1
34	1	1	14	3	3	2282	1	40728	1
35	1	16	15	3	3	3459	1	40728	1
36	2	35	4	2	2	1141	1	40728	1
1	2	17	13	1	2	14334	0	40730	1
2	1	19	10	2	2	1900	1	40730	1
3	2	2	6	1	1	2288	1	40730	1
4	1	22	12	2	2	1143	1	40730	1
5	1	33	15	3	3	2386	1	40730	1
6	1	10	6	2	2	4323	1	40730	1
7	1	26	1	1	1	3606	1	40730	1
8	2	16	15	2	2	7424	1	40730	1
9	1	15	5	2	2	1325	1	40730	1
10	1	25	11	2	2	1488	1	40730	1
11	1	14	9	2	2	1607	1	40730	1
12	2	32	16	3	2	2569	0	40730	1
13	1	31	16	3	3	2604	1	40730	1
14	2	7	10	2	2	2129	1	40730	1
15	1	18	2	3	3	2922	1	40730	1
16	1	6	8	3	3	2736	1	40730	1
17	2	11	14	3	3	2213	1	40730	1
18	2	12	3	2	2	3887	1	40730	1
19	2	13	18	2	2	2972	1	40730	1
20	1	34	14	1	1	1541	1	40730	1
21	2	3	5	3	1	9510	0	40730	1
22	2	28	9	2	2	2954	1	40730	1
23	2	23	1	1	1	2662	1	40730	1
24	1	24	13	2	2	1815	1	40730	1
25	1	1	4	1	1	1722	1	40730	1
26	2	35	7	2	1	3037	0	40730	1
27	2	8	11	3	3	2450	1	40730	1
28	1	30	3	1	2	3080	0	40730	1
29	2	29	17	2	1	3704	0	40730	1
30	2	36	8	2	1	4230	0	40730	1
31	1	4	17	2	2	2291	1	40730	1
32	2	21	12	2	2	1360	1	40730	1
33	1	9	7	2	2	1087	1	40730	1
34	1	20	18	3	3	1774	1	40730	1
35	2	27	2	2	2	3963	1	40730	1
36	2	5	4	1	1	1202	1	40730	1
1	1	30	15	3	3	29165	1	40738	1
2	1	2	4	2	2	6743	1	40738	1
3	2	16	15	3	1	10064	0	40738	1
4	2	17	16	3	2	5173	0	40738	1
5	1	25	6	3	3	3838	1	40738	1
6	1	22	18	3	3	3323	1	40738	1
7	1	34	1	1	1	5703	1	40738	1
8	2	35	11	1	2	11612	0	40738	1
9	2	27	5	1	1	8666	1	40738	1
10	2	7	4	3	3	6699	1	40738	1
11	2	14	6	1	2	6200	0	40738	1
12	1	28	8	3	1	8105	0	40738	1
13	2	20	13	1	1	7205	1	40738	1
14	2	32	8	1	1	5880	1	40738	1
15	2	36	1	2	2	6813	1	40738	1
16	2	26	3	1	1	5741	1	40738	1
17	2	13	17	2	1	11101	0	40738	1
18	2	24	7	1	3	8953	0	40738	1
19	2	5	10	1	1	6383	1	40738	1
20	1	33	17	1	1	6735	1	40738	1
21	1	21	11	2	2	6606	1	40738	1
22	2	6	18	1	1	5361	1	40738	1
23	1	29	5	3	2	7348	0	40738	1
24	1	18	16	1	2	11362	0	40738	1
25	1	19	2	3	3	3441	1	40738	1
26	1	1	13	2	2	7298	1	40738	1
27	2	11	2	1	3	10751	0	40738	1
28	2	23	12	2	1	7397	0	40738	1
29	2	4	14	2	2	6717	1	40738	1
30	1	8	9	3	3	6802	1	40738	1
31	1	9	10	1	1	5000	1	40738	1
32	1	12	7	2	3	7246	0	40738	1
33	1	3	14	2	2	5010	1	40738	1
34	1	31	12	1	1	2755	1	40738	1
35	1	10	3	3	3	5936	1	40738	1
36	2	15	9	1	1	5597	1	40738	1
1	1	29	5	1	1	2213	1	40743	1
2	1	13	12	2	2	21428	1	40743	1
3	2	21	17	1	1	2573	1	40743	1
4	1	20	6	2	1	20039	0	40743	1
5	2	14	15	3	3	45389	1	40743	1
6	2	12	3	2	2	10529	1	40743	1
7	2	11	7	1	1	19792	1	40743	1
8	2	30	13	1	1	17122	1	40743	1
9	2	7	4	1	1	10585	1	40743	1
10	1	8	16	1	1	4177	1	40743	1
11	2	9	10	1	1	5696	1	40743	1
12	1	10	13	2	2	5808	1	40743	1
13	2	33	11	2	2	6047	1	40743	1
14	2	28	6	3	3	2060	1	40743	1
15	1	34	9	1	2	7279	0	40743	1
16	2	17	9	1	1	10985	1	40743	1
17	2	18	1	3	3	7296	1	40743	1
18	1	16	18	1	1	7486	1	40743	1
19	1	22	17	2	2	4480	1	40743	1
20	2	25	14	1	1	22614	1	40743	1
21	2	35	8	2	2	2347	1	40743	1
22	2	23	12	3	3	4223	1	40743	1
23	2	31	16	1	1	19925	1	40743	1
24	2	3	18	3	3	4532	1	40743	1
25	1	1	4	3	2	2098	0	40743	1
26	1	24	14	2	2	3970	1	40743	1
27	1	19	15	1	1	3586	1	40743	1
28	2	4	2	1	1	7561	1	40743	1
29	1	27	10	2	2	4972	1	40743	1
30	1	6	2	2	2	5835	1	40743	1
31	1	36	7	1	1	6112	1	40743	1
32	1	5	3	2	3	93758	0	40743	1
33	2	2	5	3	3	12113	1	40743	1
34	1	26	8	1	1	11471	1	40743	1
35	1	15	1	2	2	8491	1	40743	1
36	1	32	11	1	1	8381	1	40743	1
1	1	2	10	3	3	3472	1	40750	1
2	2	29	9	2	2	2054	1	40750	1
3	2	3	8	3	3	2726	1	40750	1
4	1	33	7	3	3	1992	1	40750	1
5	1	5	13	2	2	1113	1	40750	1
6	1	23	12	1	1	899	1	40750	1
7	1	15	4	1	1	1941	1	40750	1
8	2	25	12	1	1	3	1	40750	1
9	2	28	13	1	1	3	1	40750	1
10	1	7	9	1	1	3	1	40750	1
11	2	32	2	2	1	3	0	40750	1
12	2	9	6	2	1	3	0	40750	1
13	1	27	8	2	1	3	0	40750	1
14	2	19	16	3	1	3	0	40750	1
15	2	18	3	1	1	3	1	40750	1
16	1	35	5	2	1	3	0	40750	1
17	1	31	1	2	1	3	0	40750	1
18	2	20	15	3	1	3	0	40750	1
19	1	11	3	1	1	3	1	40750	1
20	2	21	5	3	1	3	0	40750	1
21	1	12	15	1	1	3	1	40750	1
22	1	8	11	2	1	3	0	40750	1
23	2	6	10	2	1	3	0	40750	1
24	2	30	17	1	1	3	1	40750	1
25	2	26	1	2	1	3	0	40750	1
26	1	1	16	2	1	3	0	40750	1
27	1	24	6	1	1	3	1	40750	1
28	1	34	18	3	1	3	0	40750	1
29	1	10	2	3	1	3	0	40750	1
30	2	13	18	2	1	3	0	40750	1
31	2	36	11	3	1	3	0	40750	1
32	2	4	4	3	1	3	0	40750	1
33	1	14	17	3	1	3	0	40750	1
34	2	16	7	3	1	3	0	40750	1
35	1	22	14	3	1	3	0	40750	1
36	2	17	14	3	1	2	0	40750	1
1	2	27	10	1	1	4782	1	40758	1
2	2	8	17	2	2	3064	1	40758	1
3	1	12	10	1	1	1947	1	40758	1
4	1	21	4	1	1	2262	1	40758	1
5	2	20	3	2	2	2277	1	40758	1
